trial_type,trial_index,time_elapsed,internal_node_id,sona_id,surveys_completed,rt,stimulus,response,section,key_press,age_years,country,primary_language,question_order,gender,education,relationship_status,living_arrangement,screen_time,s1_item01,s1_item02,s1_item03,s1_item04,s1_item05,s1_item06,s1_item07,s1_item08,s1_item09,s1_item10,s1_item11,s1_item12,s1_item13,s1_item14,s1_item15,scored_responses,correct,set,block,trial,set_size,load_condition,phase_type,key_answer,reversal_crit,counter,nrevs
pavlovia,0,7,0.0-0.0,9121,TRUE,,,,,,,,,,,,,,,,,,,,,,,,,,,,,,,,,,,,,,,,,
html-button-response,1,4629,0.0-1.0,9121,TRUE,4620,"
    <div style=""max-width: 900px; margin: 0 auto; text-align: left; line-height: 1.5;"">
      <h2>PARTICIPANT INFORMATION SHEET</h2>
      <p><strong>[ETH23-8006 - G-35-2025] - From Exposure to Impact: Measuring the Cognitive Effects of Trauma in the General Population</strong></p>

      <h3>WHO IS CONDUCTING THIS RESEARCH?</h3>
      <p>My name is Jasmine Burrows and I am a student at UTS. My supervisor is Adam Manoogian and they can be contacted at <a href=""mailto:adam.manoogian@uts.edu.au"">adam.manoogian@uts.edu.au</a>.</p>

      <h3>WHAT IS THE RESEARCH ABOUT?</h3>
      <p>The purpose of this research is to explore how different life experiences, particularly potentially stressful or traumatic events, may relate to how people perform on memory tasks of varying difficulty.</p>
      <p>You will be asked to complete two short questionnaires about your life experiences and current symptoms, followed by a computer-based task that measures your working memory under both easier and more challenging conditions. This study aims to understand whether people with different levels of life experience and symptom impact perform differently on these tasks, and whether the level of task difficulty has a bigger effect on some groups than others. The findings may help guide future research into how life experiences shape thinking and memory in the general population.</p>
      <p>Importantly, the tasks that you will complete are not meant to imply a diagnosis of some disorder or illness, but rather to gather information on certain behaviors and beliefs in the general population. You should not consider your performance on these tasks or how you answered the questions as indicative of any clinical diagnosis.</p>

      <h3>WHY HAVE I BEEN INVITED?</h3>
      <p>You have been invited to participate because this project aims to include a broad range of people from the general population, with different ages, education levels, occupations, and backgrounds. By taking part, you will help ensure that the research reflects the diversity of experiences and thinking styles in the community, allowing for more accurate and meaningful results.</p>

      <h3>WHAT DOES MY PARTICIPATION INVOLVE?</h3>
      <p>If you decide to participate, I will invite you to:</p>
      <ul>
        <li>provide some information about yourself e.g. age, gender, level of education, and primary language spoken, which will take approximately 5 minutes to complete</li>
        <li>complete a series of questionnaires which will take 15 minutes to complete</li>
        <li>complete a behavioural task which will take approximately 15 minutes to complete</li>
      </ul>
      <p>Participation is expected to take 30 - 45 minutes and if you are participating in this study as a result of SONA, you will receive 2 course credits.</p>

      <h3>ARE THERE ANY RISKS/INCONVENIENCE?</h3>
      <p>While this project has been determined to be a Low &amp; Negligible Risk Project, some of the questions ask about difficult or stressful life events you may have experienced, which might cause mild emotional discomfort. You can skip any question you don't want to answer, take a break at any time, or withdraw without penalty. You will not be asked to provide detailed descriptions of events, and your responses will remain anonymous. We've minimised these risks by keeping questions general, and providing clear warnings before any potentially sensitive questions. The study is completed entirely online, so there is no face-to-face disclosure, and you are in control of how and when you respond.</p>
      <p>Please be aware that you have the right to refuse to answer any questions, and you are free to discontinue participation at any point in the research without giving any reason and without any consequences.</p>
      <p>If you experience any feelings of distress or discomfort for any reason, please contact your General Practitioner to seek advice. UTS students also have access to the confidential UTS Counselling service 9514 1177.</p>
      <p><strong>If you are experiencing an emergency or mental health crisis</strong>, the following 24 hour helplines are available for support within Australia:</p>
      <ol>
        <li>Lifeline: 13 11 14</li>
        <li>NSW Mental Health Line: 1800 011 511</li>
        <li>In an emergency call 000</li>
      </ol>
      <p>If you are outside of Australia, you should contact your local mental health crisis service, <a href=""https://www.befrienders.org"" target=""_blank"" rel=""noopener"">www.befrienders.org</a>, or if available, your primary care practitioner.</p>

      <h3>DO I HAVE TO TAKE PART IN THIS RESEARCH PROJECT?</h3>
      <p>Participation in this study is voluntary. It is completely up to you whether or not you decide to take part.</p>
      <p>If you decide not to participate, or to withdraw from the study, it will not affect your relationship with the researchers or the University of Technology Sydney. Participation or non-participation will have no bearing on student course progression or assessment.</p>

      <h3>WHAT IF I WITHDRAW FROM THIS RESEARCH PROJECT?</h3>
      <p>If you wish to withdraw from the study once it has started, you can do so at any time by closing the browser window. If you close the browser before completing the study your data will not be included in the analyses. However, if you still wish to receive SONA credit you will need to email <a href=""mailto:adam.manoogian@uts.edu.au"">adam.manoogian@uts.edu.au</a> to receive this manually. Please note that once you have completed the study it will not be possible to remove any information you have provided because all information is non-identifiable.</p>

      <h3>WHAT WILL HAPPEN TO INFORMATION ABOUT ME?</h3>
      <p>By signing the consent form you consent to the research team collecting and using personal information about you for the research project. All this information will be treated confidentially and stored securely. Researchers at UTS are required to adhere to policies around data management as set out in the UTS records management policy. You can access this policy here: <a href=""https://www.uts.edu.au/about/uts-governance/policies/uts-policy/records-management-policy"" target=""_blank"" rel=""noopener"">UTS Records Management Policy</a>.</p>
      <p>We do not intend to store any identifiable information such as your name, email address or student ID for the purposes of this project, meaning that the information you give us is non-identifiable.</p>
      <p>It is anticipated that the results of this research project will be published and/or presented in a variety of forums. In any publication and/or presentation, aggregated group level information will be provided in such a way that you cannot personally be identified.</p>
      <p>The results of this research may also be shared through open access (public) scientific databases, including internet databases. This will enable other researchers to use the data to investigate other important research questions.</p>

      <h3>WHAT IF I HAVE ANY QUERIES OR CONCERNS?</h3>
      <p>If you have queries or concerns about the research that you think we or our supervisor can help you with, please feel free to contact us through our supervisor at <a href=""mailto:adam.manoogian@uts.edu.au"">adam.manoogian@uts.edu.au</a>.</p>
      <p>You will be given a copy of this form to keep or provided with a link so that you can download it.</p>

      <h3>NOTE</h3>
      <p>This study has been approved by an ethics review panel in line with the University of Technology Sydney Human Research Ethics Committee [UTS HREC] guidelines. If you have any concerns or complaints about any aspect of the conduct of this research that you wish to raise independently of the research team, please contact the Ethics Secretariat on ph.: +61 2 9514 2478 or email: <a href=""mailto:Research.Ethics@uts.edu.au"">Research.Ethics@uts.edu.au</a>, and quote the UTS HREC reference number. Any matter raised will be treated confidentially, investigated and you will be informed of the outcome.</p>

      <hr>
      <p>When you are ready, click the button below to continue to the consent form.</p>
    </div>
  ",0,,,,,,,,,,,,,,,,,,,,,,,,,,,,,,,,,,,,,,
html-button-response,2,5661,0.0-2.0,9121,TRUE,1028,"
    <div style=""max-width: 900px; margin: 0 auto; text-align: left; line-height: 1.5;"">
      <h3>CONSENT FORM [online study]</h3>
      <p><strong>[ETH23-8006 - G-35-2025]</strong> - <em>From Exposure to Impact: Measuring the Cognitive Effects of Trauma in the General Population</em></p>
      <p><strong>Online Consent:</strong> Please review each statement. You will then indicate your consent below.</p>
      <ul style=""list-style: none; padding-left: 0;"">
        <li>☐ I agree to participate in the research project being conducted by Jasmine Burrows (<a href=""mailto:jasmine.e.burrows@student.uts.edu.au"">jasmine.e.burrows@student.uts.edu.au</a>, +61 448 999 255).</li>
        <li>☐ I have read the Participant Information Sheet or someone has read it to me in language that I understand.</li>
        <li>☐ I understand the purposes, procedures and risks of the research as described in the Participant Information Sheet.</li>
        <li>☐ I freely agree to participate in this research project as described and understand that I am free to withdraw at any time without affecting my relationship with the researchers or the University of Technology Sydney.</li>
        <li>☐ I understand that my data will be securely stored in a <em>non-identifiable</em> format.</li>
        <li>☐ I understand that I should download a copy of this information and consent form <span style=""text-decoration: underline;"">[here]</span>.</li>
        <li>☐ I am aware that I can contact the researchers on the contact details provided if I have any concerns about the research.</li>
      </ul>
      <hr>
      <p><strong>Do you consent to participate in this study?</strong></p>
    </div>
  ",0,consent,,,,,,,,,,,,,,,,,,,,,,,,,,,,,,,,,,,,,
html-keyboard-response,3,6501,0.0-3.0,9121,TRUE,837,"
    <div class=""center"" style=""max-width:800px; margin:0 auto;"">
      <h3>Demographics</h3>
      <p>Please answer a few background questions. All items are required.</p>
      <p><em>Press SPACE to begin</em></p>
    </div>",,,32,,,,,,,,,,,,,,,,,,,,,,,,,,,,,,,,,,,,
survey-text,4,42606,0.0-4.0,9121,TRUE,36082,,"{""age_years"":""26x"",""country"":""Ausx"",""primary_language"":""Engx""}",demographics_text,,26x,Ausx,Engx,,,,,,,,,,,,,,,,,,,,,,,,,,,,,,,,,
survey-multi-choice,5,49017,0.0-5.0,9121,TRUE,6409,,"{""gender"":""Female"",""education"":""Bachelors Degree or similar (TAFE)"",""relationship_status"":""Married or in a domestic partnership"",""living_arrangement"":""Renting"",""screen_time"":""5 or 6""}",demographics_mc,,,,,"0,1,2,3,4",Female,Bachelors Degree or similar (TAFE),Married or in a domestic partnership,Renting,5 or 6,,,,,,,,,,,,,,,,,,,,,,,,,,,
html-keyboard-response,6,50213,0.0-6.0,9121,TRUE,1194,"
    <div class=""center"" style=""max-width: 800px; margin: 0 auto; text-align: left; line-height: 1.5;"">
      <h3>Survey 1 Instructions</h3>
      <p>Listed below are a number of difficult or stressful things that sometimes happen to people. 
      For each event check one or more of the boxes to the right to indicate that:</p>
      <ul>
        <li>(a) it happened to you personally</li>
        <li>(b) you witnessed it happen to someone else</li>
        <li>(c) you learned about it happening to a close family member or close friend</li>
        <li>(d) you were exposed to it as part of your job (for example, paramedic, police, military, or other first responder)</li>
        <li>(e) you're not sure if it fits</li>
        <li>(f) it doesn't apply to you</li>
      </ul>
      <p><strong>Be sure to consider your entire life</strong> (growing up as well as adulthood) as you go through the list of events.</p>
      <p>Please answer honestly.</p>
      <p style=""text-align:center;""><em>Press SPACE to begin Survey 1</em></p>
    </div>",,,32,,,,,,,,,,,,,,,,,,,,,,,,,,,,,,,,,,,,
survey-multi-select,7,72868,0.0-7.0,9121,TRUE,22637,,"{""s1_item01"":[""(a) it happened to me personally""],""s1_item02"":[""(a) it happened to me personally""],""s1_item03"":[""(a) it happened to me personally""],""s1_item04"":[""(a) it happened to me personally""],""s1_item05"":[""(a) it happened to me personally""],""s1_item06"":[""(a) it happened to me personally""],""s1_item07"":[""(a) it happened to me personally""],""s1_item08"":[""(a) it happened to me personally""],""s1_item09"":[""(a) it happened to me personally""],""s1_item10"":[""(a) it happened to me personally""],""s1_item11"":[""(a) it happened to me personally""],""s1_item12"":[""(a) it happened to me personally""],""s1_item13"":[""(a) it happened to me personally""],""s1_item14"":[""(a) it happened to me personally""],""s1_item15"":[""(a) it happened to me personally""]}",survey1,,,,,"0,1,2,3,4,5,6,7,8,9,10,11,12,13,14",,,,,,(a) it happened to me personally,(a) it happened to me personally,(a) it happened to me personally,(a) it happened to me personally,(a) it happened to me personally,(a) it happened to me personally,(a) it happened to me personally,(a) it happened to me personally,(a) it happened to me personally,(a) it happened to me personally,(a) it happened to me personally,(a) it happened to me personally,(a) it happened to me personally,(a) it happened to me personally,(a) it happened to me personally,,,,,,,,,,,,
html-keyboard-response,8,73771,0.0-8.0,9121,TRUE,901,"
    <div class=""center"" style=""max-width: 800px; margin: 0 auto; text-align: left; line-height: 1.5;"">
      <h3>Survey 2 Instructions</h3>
      <p>Below is a list of difficulties people sometimes have after stressful life events.</p>
      <p>Please read each item, and then indicate how distressing each difficulty has been for you 
      <strong>DURING THE PAST SEVEN DAYS</strong> with respect to (the event).</p>
      <p>How much were you distressed or bothered by these difficulties? Please answer honestly.</p>
      <p style=""text-align:center;""><em>Press SPACE to begin Survey 2</em></p>
    </div>",,,32,,,,,,,,,,,,,,,,,,,,,,,,,,,,,,,,,,,,
survey-likert,9,145303,0.0-9.0,9121,TRUE,71526,,"{""s2_item01"":0,""s2_item02"":0,""s2_item03"":0,""s2_item04"":0,""s2_item05"":0,""s2_item06"":0,""s2_item07"":0,""s2_item08"":0,""s2_item09"":0,""s2_item10"":0,""s2_item11"":0,""s2_item12"":0,""s2_item13"":0,""s2_item14"":0,""s2_item15"":0,""s2_item16"":0,""s2_item17"":0,""s2_item18"":0,""s2_item19"":0,""s2_item20"":0,""s2_item21"":0,""s2_item22"":0}",survey2,,,,,"0,1,2,3,4,5,6,7,8,9,10,11,12,13,14,15,16,17,18,19,20,21",,,,,,,,,,,,,,,,,,,,,{},,,,,,,,,,,
html-keyboard-response,10,147308,0.0-10.0,9121,TRUE,null,<div class='center'><p>Preparing to start the task...</p></div>,,,null,,,,,,,,,,,,,,,,,,,,,,,,,,,,,,,,,,,,
html-keyboard-response,11,151955,0.0-11.0,9121,TRUE,4646,"<div class='center'><p>Hello! Before beginning the task, please maximize this window and 
  turn off all notifications on your computer. <br><br>
  This game will require you to focus! Please make sure you're in a quiet environment.
  </p></div><p class=""continue"">[Press SPACE to continue]</p>",,,32,,,,,,,,,,,,,,,,,,,,,,,,,,,,,,,,,,,,
html-keyboard-response,12,153326,0.0-12.0,9121,TRUE,1369,"<div class='center'><p>In this experiment, you will see a series of images on the screen.<br><br>
  Please respond to each image by pressing one of the three buttons on the keyboard,
  J, K, or L, with your dominant hand.
  </p></div><p class=""continue"">[Press SPACE to continue]</p>",,,32,,,,,,,,,,,,,,,,,,,,,,,,,,,,,,,,,,,,
html-keyboard-response,13,154194,0.0-13.0,9121,TRUE,866,"<div class='center'><p>For each image, there is a button that gives you points. <br><br>
Your goal is to figure out which button makes you win for each image. <br><br>
You will have a couple seconds to respond.<br><br>
Please respond to every image as quickly and accurately as possible.<br><br>
If you do not respond, the trial will be counted as a loss.
</p></div><p class=""continue"">[Press SPACE to continue]</p>",,,32,,,,,,,,,,,,,,,,,,,,,,,,,,,,,,,,,,,,
html-keyboard-response,14,155243,0.0-14.0,9121,TRUE,1047,"<div class='center'><p>If you select the correct button, you will gain <span style=""color:green;"">+1</span> point. <br><br>
If you select the incorrect key or do not respond, you will earn <span style=""color:red;"">0</span> points.
</p></div><p class=""continue"">[Press SPACE to continue]</p>",,,32,,,,,,,,,,,,,,,,,,,,,,,,,,,,,,,,,,,,
html-keyboard-response,15,155953,0.0-15.0,9121,TRUE,707,"<div class='center'><p>Push the space bar to try this task out with two images. <br><br>
Remember to respond with the J, K, or L keys.
</p></div><p class=""continue"">[Press SPACE to continue]</p>",,,32,,,,,,,,,,,,,,,,,,,,,,,,,,,,,,,,,,,,
html-keyboard-response,16,157466,0.0-16.0,9121,TRUE,1511,"<div class='exp'><p>Take some time to identify the images below:</p><table class='center'><tr><td><img class=""disp"" src=""static/img/images4/image1.jpg""></td><td><img class=""disp"" src=""static/img/images4/image2.jpg""></td></table></div><p class=""continue"">[Press SPACE to continue]</p>",,,32,,,,,,,,,,,,,,,,,,,,,,,,,,,,,,,,,,,,
html-keyboard-response,17,157969,0.0-17.0,9121,TRUE,null,<div class='exp'><p class='fix center'>+</p></div>,,,null,,,,,,,,,,,,,,,,,,,,,,,,,,,,,,,,,,,,
categorize-html,18,158926,0.0-18.0,9121,TRUE,453,1,,,0,,,,,,,,,,,,,,,,,,,,,,,,,,FALSE,4,1,1,2,low,practice_static,2,,,
html-keyboard-response,19,159429,0.0-19.0,9121,TRUE,null,<div class='exp'><p class='fix center'>+</p></div>,,,null,,,,,,,,,,,,,,,,,,,,,,,,,,,,,,,,,,,,
categorize-html,20,160412,0.0-20.0,9121,TRUE,479,2,,,0,,,,,,,,,,,,,,,,,,,,,,,,,,TRUE,4,1,2,2,low,practice_static,0,,,
html-keyboard-response,21,160914,0.0-21.0,9121,TRUE,null,<div class='exp'><p class='fix center'>+</p></div>,,,null,,,,,,,,,,,,,,,,,,,,,,,,,,,,,,,,,,,,
categorize-html,22,161917,0.0-22.0,9121,TRUE,499,2,,,0,,,,,,,,,,,,,,,,,,,,,,,,,,TRUE,4,1,3,2,low,practice_static,0,,,
html-keyboard-response,23,162420,0.0-23.0,9121,TRUE,null,<div class='exp'><p class='fix center'>+</p></div>,,,null,,,,,,,,,,,,,,,,,,,,,,,,,,,,,,,,,,,,
categorize-html,24,163298,0.0-24.0,9121,TRUE,375,1,,,1,,,,,,,,,,,,,,,,,,,,,,,,,,FALSE,4,1,4,2,low,practice_static,2,,,
html-keyboard-response,25,163800,0.0-25.0,9121,TRUE,null,<div class='exp'><p class='fix center'>+</p></div>,,,null,,,,,,,,,,,,,,,,,,,,,,,,,,,,,,,,,,,,
categorize-html,26,164798,0.0-26.0,9121,TRUE,494,2,,,0,,,,,,,,,,,,,,,,,,,,,,,,,,TRUE,4,1,5,2,low,practice_static,0,,,
html-keyboard-response,27,165301,0.0-27.0,9121,TRUE,null,<div class='exp'><p class='fix center'>+</p></div>,,,null,,,,,,,,,,,,,,,,,,,,,,,,,,,,,,,,,,,,
categorize-html,28,166192,0.0-28.0,9121,TRUE,389,1,,,2,,,,,,,,,,,,,,,,,,,,,,,,,,TRUE,4,1,6,2,low,practice_static,2,,,
html-keyboard-response,29,166693,0.0-29.0,9121,TRUE,null,<div class='exp'><p class='fix center'>+</p></div>,,,null,,,,,,,,,,,,,,,,,,,,,,,,,,,,,,,,,,,,
categorize-html,30,167557,0.0-30.0,9121,TRUE,361,1,,,2,,,,,,,,,,,,,,,,,,,,,,,,,,TRUE,4,1,7,2,low,practice_static,2,,,
html-keyboard-response,31,168060,0.0-31.0,9121,TRUE,null,<div class='exp'><p class='fix center'>+</p></div>,,,null,,,,,,,,,,,,,,,,,,,,,,,,,,,,,,,,,,,,
categorize-html,32,169017,0.0-32.0,9121,TRUE,453,2,,,2,,,,,,,,,,,,,,,,,,,,,,,,,,FALSE,4,1,8,2,low,practice_static,0,,,
html-keyboard-response,33,169519,0.0-33.0,9121,TRUE,null,<div class='exp'><p class='fix center'>+</p></div>,,,null,,,,,,,,,,,,,,,,,,,,,,,,,,,,,,,,,,,,
categorize-html,34,170641,0.0-34.0,9121,TRUE,619,2,,,2,,,,,,,,,,,,,,,,,,,,,,,,,,FALSE,4,1,9,2,low,practice_static,0,,,
html-keyboard-response,35,171144,0.0-35.0,9121,TRUE,null,<div class='exp'><p class='fix center'>+</p></div>,,,null,,,,,,,,,,,,,,,,,,,,,,,,,,,,,,,,,,,,
categorize-html,36,172131,0.0-36.0,9121,TRUE,483,1,,,2,,,,,,,,,,,,,,,,,,,,,,,,,,TRUE,4,1,10,2,low,practice_static,2,,,
html-keyboard-response,37,172634,0.0-37.0,9121,TRUE,null,<div class='exp'><p class='fix center'>+</p></div>,,,null,,,,,,,,,,,,,,,,,,,,,,,,,,,,,,,,,,,,
categorize-html,38,173863,0.0-38.0,9121,TRUE,727,2,,,0,,,,,,,,,,,,,,,,,,,,,,,,,,TRUE,4,1,11,2,low,practice_static,0,,,
html-keyboard-response,39,174366,0.0-39.0,9121,TRUE,null,<div class='exp'><p class='fix center'>+</p></div>,,,null,,,,,,,,,,,,,,,,,,,,,,,,,,,,,,,,,,,,
categorize-html,40,175362,0.0-40.0,9121,TRUE,493,1,,,2,,,,,,,,,,,,,,,,,,,,,,,,,,TRUE,4,1,12,2,low,practice_static,2,,,
html-keyboard-response,41,175864,0.0-41.0,9121,TRUE,null,<div class='exp'><p class='fix center'>+</p></div>,,,null,,,,,,,,,,,,,,,,,,,,,,,,,,,,,,,,,,,,
categorize-html,42,177447,0.0-42.0,9121,TRUE,1079,1,,,2,,,,,,,,,,,,,,,,,,,,,,,,,,TRUE,4,1,13,2,low,practice_static,2,,,
html-keyboard-response,43,177949,0.0-43.0,9121,TRUE,null,<div class='exp'><p class='fix center'>+</p></div>,,,null,,,,,,,,,,,,,,,,,,,,,,,,,,,,,,,,,,,,
categorize-html,44,178924,0.0-44.0,9121,TRUE,471,2,,,0,,,,,,,,,,,,,,,,,,,,,,,,,,TRUE,4,1,14,2,low,practice_static,0,,,
html-keyboard-response,45,179426,0.0-45.0,9121,TRUE,null,<div class='exp'><p class='fix center'>+</p></div>,,,null,,,,,,,,,,,,,,,,,,,,,,,,,,,,,,,,,,,,
categorize-html,46,180547,0.0-46.0,9121,TRUE,618,1,,,2,,,,,,,,,,,,,,,,,,,,,,,,,,TRUE,4,1,15,2,low,practice_static,2,,,
html-keyboard-response,47,181049,0.0-47.0,9121,TRUE,null,<div class='exp'><p class='fix center'>+</p></div>,,,null,,,,,,,,,,,,,,,,,,,,,,,,,,,,,,,,,,,,
categorize-html,48,182337,0.0-48.0,9121,TRUE,785,1,,,2,,,,,,,,,,,,,,,,,,,,,,,,,,TRUE,4,1,16,2,low,practice_static,2,,,
html-keyboard-response,49,182840,0.0-49.0,9121,TRUE,null,<div class='exp'><p class='fix center'>+</p></div>,,,null,,,,,,,,,,,,,,,,,,,,,,,,,,,,,,,,,,,,
categorize-html,50,183758,0.0-50.0,9121,TRUE,414,2,,,0,,,,,,,,,,,,,,,,,,,,,,,,,,TRUE,4,1,17,2,low,practice_static,0,,,
html-keyboard-response,51,184260,0.0-51.0,9121,TRUE,null,<div class='exp'><p class='fix center'>+</p></div>,,,null,,,,,,,,,,,,,,,,,,,,,,,,,,,,,,,,,,,,
categorize-html,52,185430,0.0-52.0,9121,TRUE,668,2,,,0,,,,,,,,,,,,,,,,,,,,,,,,,,TRUE,4,1,18,2,low,practice_static,0,,,
html-keyboard-response,53,185933,0.0-53.0,9121,TRUE,null,<div class='exp'><p class='fix center'>+</p></div>,,,null,,,,,,,,,,,,,,,,,,,,,,,,,,,,,,,,,,,,
categorize-html,54,186928,0.0-54.0,9121,TRUE,492,1,,,2,,,,,,,,,,,,,,,,,,,,,,,,,,TRUE,4,1,19,2,low,practice_static,2,,,
html-keyboard-response,55,187431,0.0-55.0,9121,TRUE,null,<div class='exp'><p class='fix center'>+</p></div>,,,null,,,,,,,,,,,,,,,,,,,,,,,,,,,,,,,,,,,,
categorize-html,56,188463,0.0-56.0,9121,TRUE,529,2,,,0,,,,,,,,,,,,,,,,,,,,,,,,,,TRUE,4,1,20,2,low,practice_static,0,,,
html-keyboard-response,57,189506,0.0-57.0,9121,TRUE,1040,"<div class=""center""><p>Remember that every image has ONE correct key.</p>      <br><p>Try out all the keys to find the correct one! Here is another practice round. </p></div>",,,32,,,,,,,,,,,,,,,,,,,,,,,,,,,,,,,,,,,,
html-keyboard-response,58,190009,0.0-58.0,9121,TRUE,null,<div class='exp'><p class='fix center'>+</p></div>,,,null,,,,,,,,,,,,,,,,,,,,,,,,,,,,,,,,,,,,
categorize-html,59,191584,0.0-59.0,9121,TRUE,1073,4,,,1,,,,,,,,,,,,,,,,,,,,,,,,,,TRUE,4,1,22,2,low,practice_static,1,,,
html-keyboard-response,60,192087,0.0-60.0,9121,TRUE,null,<div class='exp'><p class='fix center'>+</p></div>,,,null,,,,,,,,,,,,,,,,,,,,,,,,,,,,,,,,,,,,
categorize-html,61,193051,0.0-61.0,9121,TRUE,461,3,,,0,,,,,,,,,,,,,,,,,,,,,,,,,,TRUE,4,1,23,2,low,practice_static,0,,,
html-keyboard-response,62,193554,0.0-62.0,9121,TRUE,null,<div class='exp'><p class='fix center'>+</p></div>,,,null,,,,,,,,,,,,,,,,,,,,,,,,,,,,,,,,,,,,
categorize-html,63,194463,0.0-63.0,9121,TRUE,406,4,,,1,,,,,,,,,,,,,,,,,,,,,,,,,,TRUE,4,1,24,2,low,practice_static,1,,,
html-keyboard-response,64,194966,0.0-64.0,9121,TRUE,null,<div class='exp'><p class='fix center'>+</p></div>,,,null,,,,,,,,,,,,,,,,,,,,,,,,,,,,,,,,,,,,
categorize-html,65,196015,0.0-65.0,9121,TRUE,547,4,,,1,,,,,,,,,,,,,,,,,,,,,,,,,,TRUE,4,1,25,2,low,practice_static,1,,,
html-keyboard-response,66,196517,0.0-66.0,9121,TRUE,null,<div class='exp'><p class='fix center'>+</p></div>,,,null,,,,,,,,,,,,,,,,,,,,,,,,,,,,,,,,,,,,
categorize-html,67,197602,0.0-67.0,9121,TRUE,581,3,,,0,,,,,,,,,,,,,,,,,,,,,,,,,,TRUE,4,1,26,2,low,practice_static,0,,,
html-keyboard-response,68,198104,0.0-68.0,9121,TRUE,null,<div class='exp'><p class='fix center'>+</p></div>,,,null,,,,,,,,,,,,,,,,,,,,,,,,,,,,,,,,,,,,
categorize-html,69,199514,0.0-69.0,9121,TRUE,906,3,,,0,,,,,,,,,,,,,,,,,,,,,,,,,,TRUE,4,1,27,2,low,practice_static,0,,,
html-keyboard-response,70,200016,0.0-70.0,9121,TRUE,null,<div class='exp'><p class='fix center'>+</p></div>,,,null,,,,,,,,,,,,,,,,,,,,,,,,,,,,,,,,,,,,
categorize-html,71,201001,0.0-71.0,9121,TRUE,482,4,,,1,,,,,,,,,,,,,,,,,,,,,,,,,,TRUE,4,1,28,2,low,practice_static,1,,,
html-keyboard-response,72,201503,0.0-72.0,9121,TRUE,null,<div class='exp'><p class='fix center'>+</p></div>,,,null,,,,,,,,,,,,,,,,,,,,,,,,,,,,,,,,,,,,
categorize-html,73,202427,0.0-73.0,9121,TRUE,421,4,,,1,,,,,,,,,,,,,,,,,,,,,,,,,,TRUE,4,1,29,2,low,practice_static,1,,,
html-keyboard-response,74,202930,0.0-74.0,9121,TRUE,null,<div class='exp'><p class='fix center'>+</p></div>,,,null,,,,,,,,,,,,,,,,,,,,,,,,,,,,,,,,,,,,
categorize-html,75,204287,0.0-75.0,9121,TRUE,854,3,,,0,,,,,,,,,,,,,,,,,,,,,,,,,,TRUE,4,1,30,2,low,practice_static,0,,,
html-keyboard-response,76,204790,0.0-76.0,9121,TRUE,null,<div class='exp'><p class='fix center'>+</p></div>,,,null,,,,,,,,,,,,,,,,,,,,,,,,,,,,,,,,,,,,
categorize-html,77,206373,0.0-77.0,9121,TRUE,1080,4,,,1,,,,,,,,,,,,,,,,,,,,,,,,,,TRUE,4,1,31,2,low,practice_static,1,,,
html-keyboard-response,78,206876,0.0-78.0,9121,TRUE,null,<div class='exp'><p class='fix center'>+</p></div>,,,null,,,,,,,,,,,,,,,,,,,,,,,,,,,,,,,,,,,,
categorize-html,79,208178,0.0-79.0,9121,TRUE,799,3,,,0,,,,,,,,,,,,,,,,,,,,,,,,,,TRUE,4,1,32,2,low,practice_static,0,,,
html-keyboard-response,80,208680,0.0-80.0,9121,TRUE,null,<div class='exp'><p class='fix center'>+</p></div>,,,null,,,,,,,,,,,,,,,,,,,,,,,,,,,,,,,,,,,,
categorize-html,81,210259,0.0-81.0,9121,TRUE,1076,3,,,0,,,,,,,,,,,,,,,,,,,,,,,,,,TRUE,4,1,33,2,low,practice_static,0,,,
html-keyboard-response,82,210761,0.0-82.0,9121,TRUE,null,<div class='exp'><p class='fix center'>+</p></div>,,,null,,,,,,,,,,,,,,,,,,,,,,,,,,,,,,,,,,,,
categorize-html,83,211775,0.0-83.0,9121,TRUE,512,4,,,1,,,,,,,,,,,,,,,,,,,,,,,,,,TRUE,4,1,34,2,low,practice_static,1,,,
html-keyboard-response,84,212278,0.0-84.0,9121,TRUE,null,<div class='exp'><p class='fix center'>+</p></div>,,,null,,,,,,,,,,,,,,,,,,,,,,,,,,,,,,,,,,,,
categorize-html,85,213389,0.0-85.0,9121,TRUE,609,3,,,0,,,,,,,,,,,,,,,,,,,,,,,,,,TRUE,4,1,35,2,low,practice_static,0,,,
html-keyboard-response,86,213892,0.0-86.0,9121,TRUE,null,<div class='exp'><p class='fix center'>+</p></div>,,,null,,,,,,,,,,,,,,,,,,,,,,,,,,,,,,,,,,,,
categorize-html,87,214835,0.0-87.0,9121,TRUE,440,4,,,1,,,,,,,,,,,,,,,,,,,,,,,,,,TRUE,4,1,36,2,low,practice_static,1,,,
html-keyboard-response,88,215337,0.0-88.0,9121,TRUE,null,<div class='exp'><p class='fix center'>+</p></div>,,,null,,,,,,,,,,,,,,,,,,,,,,,,,,,,,,,,,,,,
categorize-html,89,216431,0.0-89.0,9121,TRUE,590,4,,,1,,,,,,,,,,,,,,,,,,,,,,,,,,TRUE,4,1,37,2,low,practice_static,1,,,
html-keyboard-response,90,216933,0.0-90.0,9121,TRUE,null,<div class='exp'><p class='fix center'>+</p></div>,,,null,,,,,,,,,,,,,,,,,,,,,,,,,,,,,,,,,,,,
categorize-html,91,217946,0.0-91.0,9121,TRUE,510,3,,,0,,,,,,,,,,,,,,,,,,,,,,,,,,TRUE,4,1,38,2,low,practice_static,0,,,
html-keyboard-response,92,218448,0.0-92.0,9121,TRUE,null,<div class='exp'><p class='fix center'>+</p></div>,,,null,,,,,,,,,,,,,,,,,,,,,,,,,,,,,,,,,,,,
categorize-html,93,219610,0.0-93.0,9121,TRUE,660,3,,,0,,,,,,,,,,,,,,,,,,,,,,,,,,TRUE,4,1,39,2,low,practice_static,0,,,
html-keyboard-response,94,220112,0.0-94.0,9121,TRUE,null,<div class='exp'><p class='fix center'>+</p></div>,,,null,,,,,,,,,,,,,,,,,,,,,,,,,,,,,,,,,,,,
categorize-html,95,221037,0.0-95.0,9121,TRUE,422,4,,,1,,,,,,,,,,,,,,,,,,,,,,,,,,TRUE,4,1,40,2,low,practice_static,1,,,
html-keyboard-response,96,222053,0.0-96.0,9121,TRUE,1014,"<div class='center'><p>Great job! <br><br>
  Now the task is going to get a little harder.
  </p></div><p class=""continue"">[Press SPACE to continue]</p>",,,32,,,,,,,,,,,,,,,,,,,,,,,,,,,,,,,,,,,,
html-keyboard-response,97,222786,0.0-97.0,9121,TRUE,731,"<div class='center'><p>Before, the correct action for each image stayed the same.<br><br>
Now, the correct action for an image can change after a while.<br><br>
When that happens, you'll need to figure out what the new correct action is!
</p></div><p class=""continue"">[Press SPACE to continue]</p>",,,32,,,,,,,,,,,,,,,,,,,,,,,,,,,,,,,,,,,,
html-keyboard-response,98,223326,0.0-98.0,9121,TRUE,539,"<div class='center'><p>Push the space bar to try this task out with one image. <br><br>
Remember to respond with the J, K, or L keys.
</p></div><p class=""continue"">[Press SPACE to continue]</p>",,,32,,,,,,,,,,,,,,,,,,,,,,,,,,,,,,,,,,,,
html-keyboard-response,99,224893,0.0-99.0,9121,TRUE,1565,"<div class='exp'><p>Take some time to identify the image below:</p><table class='center'><tr><td><img class=""disp"" src=""static/img/images12/image1.jpg""></td></table></div><p class=""continue"">[Press SPACE to continue]</p>",,,32,,,,,,,,,,,,,,,,,,,,,,,,,,,,,,,,,,,,
html-keyboard-response,100,225396,0.0-100.0,9121,TRUE,null,<div class='exp'><p class='fix center'>+</p></div>,,,null,,,,,,,,,,,,,,,,,,,,,,,,,,,,,,,,,,,,
categorize-html,101,226252,0.0-101.0,9121,TRUE,352,1,,,0,,,,,,,,,,,,,,,,,,,,,,,,,,FALSE,12,2,1,1,low,practice_dynamic,2,5,0,4
html-keyboard-response,102,226754,0.0-102.0,9121,TRUE,null,<div class='exp'><p class='fix center'>+</p></div>,,,null,,,,,,,,,,,,,,,,,,,,,,,,,,,,,,,,,,,,
categorize-html,103,227685,0.0-103.0,9121,TRUE,427,1,,,1,,,,,,,,,,,,,,,,,,,,,,,,,,FALSE,12,2,2,1,low,practice_dynamic,2,5,0,4
html-keyboard-response,104,228187,0.0-104.0,9121,TRUE,null,<div class='exp'><p class='fix center'>+</p></div>,,,null,,,,,,,,,,,,,,,,,,,,,,,,,,,,,,,,,,,,
categorize-html,105,228731,0.0-105.0,9121,TRUE,41,1,,,2,,,,,,,,,,,,,,,,,,,,,,,,,,TRUE,12,2,3,1,low,practice_dynamic,2,5,1,4
html-keyboard-response,106,229233,0.0-106.0,9121,TRUE,null,<div class='exp'><p class='fix center'>+</p></div>,,,null,,,,,,,,,,,,,,,,,,,,,,,,,,,,,,,,,,,,
categorize-html,107,230241,0.0-107.0,9121,TRUE,506,1,,,2,,,,,,,,,,,,,,,,,,,,,,,,,,TRUE,12,2,4,1,low,practice_dynamic,2,5,2,4
html-keyboard-response,108,230744,0.0-108.0,9121,TRUE,null,<div class='exp'><p class='fix center'>+</p></div>,,,null,,,,,,,,,,,,,,,,,,,,,,,,,,,,,,,,,,,,
categorize-html,109,231789,0.0-109.0,9121,TRUE,542,1,,,2,,,,,,,,,,,,,,,,,,,,,,,,,,TRUE,12,2,5,1,low,practice_dynamic,2,5,3,4
html-keyboard-response,110,232292,0.0-110.0,9121,TRUE,null,<div class='exp'><p class='fix center'>+</p></div>,,,null,,,,,,,,,,,,,,,,,,,,,,,,,,,,,,,,,,,,
categorize-html,111,233383,0.0-111.0,9121,TRUE,588,1,,,2,,,,,,,,,,,,,,,,,,,,,,,,,,TRUE,12,2,6,1,low,practice_dynamic,2,5,4,4
html-keyboard-response,112,233886,0.0-112.0,9121,TRUE,null,<div class='exp'><p class='fix center'>+</p></div>,,,null,,,,,,,,,,,,,,,,,,,,,,,,,,,,,,,,,,,,
categorize-html,113,234821,0.0-113.0,9121,TRUE,433,1,,,2,,,,,,,,,,,,,,,,,,,,,,,,,,TRUE,12,2,7,1,low,practice_dynamic,2,5,5,4
html-keyboard-response,114,235323,0.0-114.0,9121,TRUE,null,<div class='exp'><p class='fix center'>+</p></div>,,,null,,,,,,,,,,,,,,,,,,,,,,,,,,,,,,,,,,,,
categorize-html,115,236305,0.0-115.0,9121,TRUE,479,1,,,2,,,,,,,,,,,,,,,,,,,,,,,,,,FALSE,12,2,8,1,low,practice_dynamic,0,4,0,4
html-keyboard-response,116,236807,0.0-116.0,9121,TRUE,null,<div class='exp'><p class='fix center'>+</p></div>,,,null,,,,,,,,,,,,,,,,,,,,,,,,,,,,,,,,,,,,
categorize-html,117,237731,0.0-117.0,9121,TRUE,421,1,,,1,,,,,,,,,,,,,,,,,,,,,,,,,,FALSE,12,2,9,1,low,practice_dynamic,0,4,0,4
html-keyboard-response,118,238234,0.0-118.0,9121,TRUE,null,<div class='exp'><p class='fix center'>+</p></div>,,,null,,,,,,,,,,,,,,,,,,,,,,,,,,,,,,,,,,,,
categorize-html,119,239232,0.0-119.0,9121,TRUE,495,1,,,0,,,,,,,,,,,,,,,,,,,,,,,,,,TRUE,12,2,10,1,low,practice_dynamic,0,4,1,4
html-keyboard-response,120,239734,0.0-120.0,9121,TRUE,null,<div class='exp'><p class='fix center'>+</p></div>,,,null,,,,,,,,,,,,,,,,,,,,,,,,,,,,,,,,,,,,
categorize-html,121,240861,0.0-121.0,9121,TRUE,624,1,,,0,,,,,,,,,,,,,,,,,,,,,,,,,,TRUE,12,2,11,1,low,practice_dynamic,0,4,2,4
html-keyboard-response,122,241363,0.0-122.0,9121,TRUE,null,<div class='exp'><p class='fix center'>+</p></div>,,,null,,,,,,,,,,,,,,,,,,,,,,,,,,,,,,,,,,,,
categorize-html,123,242418,0.0-123.0,9121,TRUE,553,1,,,0,,,,,,,,,,,,,,,,,,,,,,,,,,TRUE,12,2,12,1,low,practice_dynamic,0,4,3,4
html-keyboard-response,124,242921,0.0-124.0,9121,TRUE,null,<div class='exp'><p class='fix center'>+</p></div>,,,null,,,,,,,,,,,,,,,,,,,,,,,,,,,,,,,,,,,,
categorize-html,125,243861,0.0-125.0,9121,TRUE,437,1,,,0,,,,,,,,,,,,,,,,,,,,,,,,,,TRUE,12,2,13,1,low,practice_dynamic,0,4,4,4
html-keyboard-response,126,244363,0.0-126.0,9121,TRUE,null,<div class='exp'><p class='fix center'>+</p></div>,,,null,,,,,,,,,,,,,,,,,,,,,,,,,,,,,,,,,,,,
categorize-html,127,245404,0.0-127.0,9121,TRUE,538,1,,,0,,,,,,,,,,,,,,,,,,,,,,,,,,FALSE,12,2,14,1,low,practice_dynamic,1,3,0,4
html-keyboard-response,128,245907,0.0-128.0,9121,TRUE,null,<div class='exp'><p class='fix center'>+</p></div>,,,null,,,,,,,,,,,,,,,,,,,,,,,,,,,,,,,,,,,,
categorize-html,129,247670,0.0-129.0,9121,TRUE,1259,1,,,1,,,,,,,,,,,,,,,,,,,,,,,,,,TRUE,12,2,15,1,low,practice_dynamic,1,3,1,4
html-keyboard-response,130,248172,0.0-130.0,9121,TRUE,null,<div class='exp'><p class='fix center'>+</p></div>,,,null,,,,,,,,,,,,,,,,,,,,,,,,,,,,,,,,,,,,
categorize-html,131,248690,0.0-131.0,9121,TRUE,16,1,,,1,,,,,,,,,,,,,,,,,,,,,,,,,,TRUE,12,2,16,1,low,practice_dynamic,1,3,2,4
html-keyboard-response,132,249192,0.0-132.0,9121,TRUE,null,<div class='exp'><p class='fix center'>+</p></div>,,,null,,,,,,,,,,,,,,,,,,,,,,,,,,,,,,,,,,,,
categorize-html,133,250296,0.0-133.0,9121,TRUE,602,1,,,1,,,,,,,,,,,,,,,,,,,,,,,,,,TRUE,12,2,17,1,low,practice_dynamic,1,3,3,4
html-keyboard-response,134,250798,0.0-134.0,9121,TRUE,null,<div class='exp'><p class='fix center'>+</p></div>,,,null,,,,,,,,,,,,,,,,,,,,,,,,,,,,,,,,,,,,
categorize-html,135,251802,0.0-135.0,9121,TRUE,500,1,,,1,,,,,,,,,,,,,,,,,,,,,,,,,,FALSE,12,2,18,1,low,practice_dynamic,0,3,0,4
html-keyboard-response,136,252305,0.0-136.0,9121,TRUE,null,<div class='exp'><p class='fix center'>+</p></div>,,,null,,,,,,,,,,,,,,,,,,,,,,,,,,,,,,,,,,,,
categorize-html,137,253304,0.0-137.0,9121,TRUE,496,1,,,2,,,,,,,,,,,,,,,,,,,,,,,,,,FALSE,12,2,19,1,low,practice_dynamic,0,3,0,4
html-keyboard-response,138,253807,0.0-138.0,9121,TRUE,null,<div class='exp'><p class='fix center'>+</p></div>,,,null,,,,,,,,,,,,,,,,,,,,,,,,,,,,,,,,,,,,
categorize-html,139,254830,0.0-139.0,9121,TRUE,520,1,,,0,,,,,,,,,,,,,,,,,,,,,,,,,,TRUE,12,2,20,1,low,practice_dynamic,0,3,1,4
html-keyboard-response,140,255332,0.0-140.0,9121,TRUE,null,<div class='exp'><p class='fix center'>+</p></div>,,,null,,,,,,,,,,,,,,,,,,,,,,,,,,,,,,,,,,,,
categorize-html,141,257145,0.0-141.0,9121,TRUE,1306,1,,,0,,,,,,,,,,,,,,,,,,,,,,,,,,TRUE,12,2,21,1,low,practice_dynamic,0,3,2,4
html-keyboard-response,142,257647,0.0-142.0,9121,TRUE,null,<div class='exp'><p class='fix center'>+</p></div>,,,null,,,,,,,,,,,,,,,,,,,,,,,,,,,,,,,,,,,,
categorize-html,143,259041,0.0-143.0,9121,TRUE,890,1,,,0,,,,,,,,,,,,,,,,,,,,,,,,,,TRUE,12,2,22,1,low,practice_dynamic,0,3,3,4
html-keyboard-response,144,259543,0.0-144.0,9121,TRUE,null,<div class='exp'><p class='fix center'>+</p></div>,,,null,,,,,,,,,,,,,,,,,,,,,,,,,,,,,,,,,,,,
categorize-html,145,260737,0.0-145.0,9121,TRUE,691,1,,,0,,,,,,,,,,,,,,,,,,,,,,,,,,FALSE,12,2,23,1,low,practice_dynamic,1,3,0,4
html-keyboard-response,146,261240,0.0-146.0,9121,TRUE,null,<div class='exp'><p class='fix center'>+</p></div>,,,null,,,,,,,,,,,,,,,,,,,,,,,,,,,,,,,,,,,,
categorize-html,147,262088,0.0-147.0,9121,TRUE,345,1,,,1,,,,,,,,,,,,,,,,,,,,,,,,,,TRUE,12,2,24,1,low,practice_dynamic,1,3,1,4
html-keyboard-response,148,264828,0.0-148.0,9121,TRUE,2738,"<div class=""center""><p>It looks like you understand the task!</p>      <br><p>Here is one last practice round.</p></div>",,,32,,,,,,,,,,,,,,,,,,,,,,,,,,,,,,,,,,,,
html-keyboard-response,149,265330,0.0-149.0,9121,TRUE,null,<div class='exp'><p class='fix center'>+</p></div>,,,null,,,,,,,,,,,,,,,,,,,,,,,,,,,,,,,,,,,,
categorize-html,150,266500,0.0-150.0,9121,TRUE,666,3,,,0,,,,,,,,,,,,,,,,,,,,,,,,,,TRUE,12,2,26,1,low,practice_dynamic,0,5,1,4
html-keyboard-response,151,267003,0.0-151.0,9121,TRUE,null,<div class='exp'><p class='fix center'>+</p></div>,,,null,,,,,,,,,,,,,,,,,,,,,,,,,,,,,,,,,,,,
categorize-html,152,267950,0.0-152.0,9121,TRUE,444,3,,,0,,,,,,,,,,,,,,,,,,,,,,,,,,TRUE,12,2,27,1,low,practice_dynamic,0,5,2,4
html-keyboard-response,153,268452,0.0-153.0,9121,TRUE,null,<div class='exp'><p class='fix center'>+</p></div>,,,null,,,,,,,,,,,,,,,,,,,,,,,,,,,,,,,,,,,,
categorize-html,154,269559,0.0-154.0,9121,TRUE,603,3,,,0,,,,,,,,,,,,,,,,,,,,,,,,,,TRUE,12,2,28,1,low,practice_dynamic,0,5,3,4
html-keyboard-response,155,270061,0.0-155.0,9121,TRUE,null,<div class='exp'><p class='fix center'>+</p></div>,,,null,,,,,,,,,,,,,,,,,,,,,,,,,,,,,,,,,,,,
categorize-html,156,270963,0.0-156.0,9121,TRUE,399,3,,,0,,,,,,,,,,,,,,,,,,,,,,,,,,TRUE,12,2,29,1,low,practice_dynamic,0,5,4,4
html-keyboard-response,157,271465,0.0-157.0,9121,TRUE,null,<div class='exp'><p class='fix center'>+</p></div>,,,null,,,,,,,,,,,,,,,,,,,,,,,,,,,,,,,,,,,,
categorize-html,158,272693,0.0-158.0,9121,TRUE,724,3,,,0,,,,,,,,,,,,,,,,,,,,,,,,,,TRUE,12,2,30,1,low,practice_dynamic,0,5,5,4
html-keyboard-response,159,273196,0.0-159.0,9121,TRUE,null,<div class='exp'><p class='fix center'>+</p></div>,,,null,,,,,,,,,,,,,,,,,,,,,,,,,,,,,,,,,,,,
categorize-html,160,274212,0.0-160.0,9121,TRUE,514,3,,,0,,,,,,,,,,,,,,,,,,,,,,,,,,FALSE,12,2,31,1,low,practice_dynamic,2,4,0,4
html-keyboard-response,161,274715,0.0-161.0,9121,TRUE,null,<div class='exp'><p class='fix center'>+</p></div>,,,null,,,,,,,,,,,,,,,,,,,,,,,,,,,,,,,,,,,,
categorize-html,162,275317,0.0-162.0,9121,TRUE,99,3,,,1,,,,,,,,,,,,,,,,,,,,,,,,,,FALSE,12,2,32,1,low,practice_dynamic,2,4,0,4
html-keyboard-response,163,275820,0.0-163.0,9121,TRUE,null,<div class='exp'><p class='fix center'>+</p></div>,,,null,,,,,,,,,,,,,,,,,,,,,,,,,,,,,,,,,,,,
categorize-html,164,276625,0.0-164.0,9121,TRUE,302,3,,,2,,,,,,,,,,,,,,,,,,,,,,,,,,TRUE,12,2,33,1,low,practice_dynamic,2,4,1,4
html-keyboard-response,165,277126,0.0-165.0,9121,TRUE,null,<div class='exp'><p class='fix center'>+</p></div>,,,null,,,,,,,,,,,,,,,,,,,,,,,,,,,,,,,,,,,,
categorize-html,166,279047,0.0-166.0,9121,TRUE,1418,3,,,2,,,,,,,,,,,,,,,,,,,,,,,,,,TRUE,12,2,34,1,low,practice_dynamic,2,4,2,4
html-keyboard-response,167,279549,0.0-167.0,9121,TRUE,null,<div class='exp'><p class='fix center'>+</p></div>,,,null,,,,,,,,,,,,,,,,,,,,,,,,,,,,,,,,,,,,
categorize-html,168,280746,0.0-168.0,9121,TRUE,693,3,,,2,,,,,,,,,,,,,,,,,,,,,,,,,,TRUE,12,2,35,1,low,practice_dynamic,2,4,3,4
html-keyboard-response,169,281248,0.0-169.0,9121,TRUE,null,<div class='exp'><p class='fix center'>+</p></div>,,,null,,,,,,,,,,,,,,,,,,,,,,,,,,,,,,,,,,,,
categorize-html,170,282037,0.0-170.0,9121,TRUE,285,3,,,2,,,,,,,,,,,,,,,,,,,,,,,,,,TRUE,12,2,36,1,low,practice_dynamic,2,4,4,4
html-keyboard-response,171,282540,0.0-171.0,9121,TRUE,null,<div class='exp'><p class='fix center'>+</p></div>,,,null,,,,,,,,,,,,,,,,,,,,,,,,,,,,,,,,,,,,
categorize-html,172,283549,0.0-172.0,9121,TRUE,506,3,,,2,,,,,,,,,,,,,,,,,,,,,,,,,,FALSE,12,2,37,1,low,practice_dynamic,1,4,0,4
html-keyboard-response,173,284051,0.0-173.0,9121,TRUE,null,<div class='exp'><p class='fix center'>+</p></div>,,,null,,,,,,,,,,,,,,,,,,,,,,,,,,,,,,,,,,,,
categorize-html,174,284890,0.0-174.0,9121,TRUE,335,3,,,1,,,,,,,,,,,,,,,,,,,,,,,,,,TRUE,12,2,38,1,low,practice_dynamic,1,4,1,4
html-keyboard-response,175,285392,0.0-175.0,9121,TRUE,null,<div class='exp'><p class='fix center'>+</p></div>,,,null,,,,,,,,,,,,,,,,,,,,,,,,,,,,,,,,,,,,
categorize-html,176,286217,0.0-176.0,9121,TRUE,322,3,,,1,,,,,,,,,,,,,,,,,,,,,,,,,,TRUE,12,2,39,1,low,practice_dynamic,1,4,2,4
html-keyboard-response,177,286719,0.0-177.0,9121,TRUE,null,<div class='exp'><p class='fix center'>+</p></div>,,,null,,,,,,,,,,,,,,,,,,,,,,,,,,,,,,,,,,,,
categorize-html,178,287804,0.0-178.0,9121,TRUE,582,3,,,1,,,,,,,,,,,,,,,,,,,,,,,,,,TRUE,12,2,40,1,low,practice_dynamic,1,4,3,4
html-keyboard-response,179,288307,0.0-179.0,9121,TRUE,null,<div class='exp'><p class='fix center'>+</p></div>,,,null,,,,,,,,,,,,,,,,,,,,,,,,,,,,,,,,,,,,
categorize-html,180,289434,0.0-180.0,9121,TRUE,624,3,,,1,,,,,,,,,,,,,,,,,,,,,,,,,,TRUE,12,2,41,1,low,practice_dynamic,1,4,4,4
html-keyboard-response,181,289936,0.0-181.0,9121,TRUE,null,<div class='exp'><p class='fix center'>+</p></div>,,,null,,,,,,,,,,,,,,,,,,,,,,,,,,,,,,,,,,,,
categorize-html,182,291081,0.0-182.0,9121,TRUE,642,3,,,0,,,,,,,,,,,,,,,,,,,,,,,,,,TRUE,12,2,42,1,low,practice_dynamic,0,3,1,4
html-keyboard-response,183,291584,0.0-183.0,9121,TRUE,null,<div class='exp'><p class='fix center'>+</p></div>,,,null,,,,,,,,,,,,,,,,,,,,,,,,,,,,,,,,,,,,
categorize-html,184,292660,0.0-184.0,9121,TRUE,573,3,,,0,,,,,,,,,,,,,,,,,,,,,,,,,,TRUE,12,2,43,1,low,practice_dynamic,0,3,2,4
html-keyboard-response,185,293163,0.0-185.0,9121,TRUE,null,<div class='exp'><p class='fix center'>+</p></div>,,,null,,,,,,,,,,,,,,,,,,,,,,,,,,,,,,,,,,,,
categorize-html,186,294094,0.0-186.0,9121,TRUE,429,3,,,0,,,,,,,,,,,,,,,,,,,,,,,,,,TRUE,12,2,44,1,low,practice_dynamic,0,3,3,4
html-keyboard-response,187,294597,0.0-187.0,9121,TRUE,null,<div class='exp'><p class='fix center'>+</p></div>,,,null,,,,,,,,,,,,,,,,,,,,,,,,,,,,,,,,,,,,
categorize-html,188,295545,0.0-188.0,9121,TRUE,446,3,,,0,,,,,,,,,,,,,,,,,,,,,,,,,,FALSE,12,2,45,1,low,practice_dynamic,1,4,0,4
html-keyboard-response,189,296048,0.0-189.0,9121,TRUE,null,<div class='exp'><p class='fix center'>+</p></div>,,,null,,,,,,,,,,,,,,,,,,,,,,,,,,,,,,,,,,,,
categorize-html,190,296883,0.0-190.0,9121,TRUE,333,3,,,2,,,,,,,,,,,,,,,,,,,,,,,,,,FALSE,12,2,46,1,low,practice_dynamic,1,4,0,4
html-keyboard-response,191,297385,0.0-191.0,9121,TRUE,null,<div class='exp'><p class='fix center'>+</p></div>,,,null,,,,,,,,,,,,,,,,,,,,,,,,,,,,,,,,,,,,
categorize-html,192,297922,0.0-192.0,9121,TRUE,34,3,,,1,,,,,,,,,,,,,,,,,,,,,,,,,,TRUE,12,2,47,1,low,practice_dynamic,1,4,1,4
html-keyboard-response,193,298423,0.0-193.0,9121,TRUE,null,<div class='exp'><p class='fix center'>+</p></div>,,,null,,,,,,,,,,,,,,,,,,,,,,,,,,,,,,,,,,,,
categorize-html,194,299254,0.0-194.0,9121,TRUE,329,3,,,1,,,,,,,,,,,,,,,,,,,,,,,,,,TRUE,12,2,48,1,low,practice_dynamic,1,4,2,4
html-keyboard-response,195,299756,0.0-195.0,9121,TRUE,null,<div class='exp'><p class='fix center'>+</p></div>,,,null,,,,,,,,,,,,,,,,,,,,,,,,,,,,,,,,,,,,
categorize-html,196,300745,0.0-196.0,9121,TRUE,488,3,,,1,,,,,,,,,,,,,,,,,,,,,,,,,,TRUE,12,2,49,1,low,practice_dynamic,1,4,3,4
html-keyboard-response,197,302006,0.0-197.0,9121,TRUE,1260,"<div class='center'><p>Great job! You have completed the practice section. <br><br>
  You will now begin the task.
</p></div><p class=""continue"">[Press SPACE to continue]</p>",,,32,,,,,,,,,,,,,,,,,,,,,,,,,,,,,,,,,,,,
html-keyboard-response,198,310754,0.0-198.0,9121,TRUE,8746,"<div class='center'><p>
There are 21 blocks. <br><br>
At the beginning of each block, you will be shown the set of images for that block.<br><br>
Some blocks will have more images than others, but your goal is always the same. <br><br>
You can take a short break between each block.
</p></div><p class=""continue"">[Press SPACE to continue]</p>",,,32,,,,,,,,,,,,,,,,,,,,,,,,,,,,,,,,,,,,
html-keyboard-response,199,311390,0.0-199.0,9121,TRUE,635,"<div class='center'><p>Remember the following important rules:<br><br>
1. At any given time, there is ONLY ONE correct response for each image.<br><br>
2. Within each block, the correct response for each image WILL CHANGE.
After you gain points for an image multiple times, you will have to find the new key to press to win again.<br><br>
3. One response button MAY be correct for multiple images, or not be correct for any image.
</p></div><p class=""continue"">[Press SPACE to continue]</p>",,,32,,,,,,,,,,,,,,,,,,,,,,,,,,,,,,,,,,,,
html-keyboard-response,200,317221,0.0-200.0,9121,TRUE,5830,"<div class='exp'><p>Block 1 of 21. <br><br> Take some time to identify the images below:</p><table class='center'><tr><td><img class=""disp"" src=""static/img/images18/image1.jpg""></td><td><img class=""disp"" src=""static/img/images18/image2.jpg""></td></table></div><p class=""continue"">[Press SPACE to continue]</p>",,,32,,,,,,,,,,,,,,,,,,,,,,,,,,,,,,,,,,,,
html-keyboard-response,201,317724,0.0-201.0,9121,TRUE,null,<div class='exp'><p class='fix center'>+</p></div>,,,null,,,,,,,,,,,,,,,,,,,,,,,,,,,,,,,,,,,,
categorize-html,202,318775,0.0-202.0,9121,TRUE,548,1,,,0,,,,,,,,,,,,,,,,,,,,,,,,,,TRUE,18,3,1,2,low,main_task,0,13,1,
html-keyboard-response,203,319278,0.0-203.0,9121,TRUE,null,<div class='exp'><p class='fix center'>+</p></div>,,,null,,,,,,,,,,,,,,,,,,,,,,,,,,,,,,,,,,,,
categorize-html,204,320143,0.0-204.0,9121,TRUE,361,2,,,1,,,,,,,,,,,,,,,,,,,,,,,,,,TRUE,18,3,2,2,low,main_task,1,17,1,
html-keyboard-response,205,320646,0.0-205.0,9121,TRUE,null,<div class='exp'><p class='fix center'>+</p></div>,,,null,,,,,,,,,,,,,,,,,,,,,,,,,,,,,,,,,,,,
categorize-html,206,321652,0.0-206.0,9121,TRUE,502,1,,,0,,,,,,,,,,,,,,,,,,,,,,,,,,TRUE,18,3,3,2,low,main_task,0,13,2,
html-keyboard-response,207,322155,0.0-207.0,9121,TRUE,null,<div class='exp'><p class='fix center'>+</p></div>,,,null,,,,,,,,,,,,,,,,,,,,,,,,,,,,,,,,,,,,
categorize-html,208,323504,0.0-208.0,9121,TRUE,847,1,,,0,,,,,,,,,,,,,,,,,,,,,,,,,,TRUE,18,3,4,2,low,main_task,0,13,3,
html-keyboard-response,209,324006,0.0-209.0,9121,TRUE,null,<div class='exp'><p class='fix center'>+</p></div>,,,null,,,,,,,,,,,,,,,,,,,,,,,,,,,,,,,,,,,,
categorize-html,210,325198,0.0-210.0,9121,TRUE,688,2,,,1,,,,,,,,,,,,,,,,,,,,,,,,,,TRUE,18,3,5,2,low,main_task,1,17,2,
html-keyboard-response,211,325700,0.0-211.0,9121,TRUE,null,<div class='exp'><p class='fix center'>+</p></div>,,,null,,,,,,,,,,,,,,,,,,,,,,,,,,,,,,,,,,,,
categorize-html,212,326808,0.0-212.0,9121,TRUE,605,2,,,1,,,,,,,,,,,,,,,,,,,,,,,,,,TRUE,18,3,6,2,low,main_task,1,17,3,
html-keyboard-response,213,327310,0.0-213.0,9121,TRUE,null,<div class='exp'><p class='fix center'>+</p></div>,,,null,,,,,,,,,,,,,,,,,,,,,,,,,,,,,,,,,,,,
categorize-html,214,328316,0.0-214.0,9121,TRUE,503,1,,,0,,,,,,,,,,,,,,,,,,,,,,,,,,TRUE,18,3,7,2,low,main_task,0,13,4,
html-keyboard-response,215,328818,0.0-215.0,9121,TRUE,null,<div class='exp'><p class='fix center'>+</p></div>,,,null,,,,,,,,,,,,,,,,,,,,,,,,,,,,,,,,,,,,
categorize-html,216,329997,0.0-216.0,9121,TRUE,675,2,,,1,,,,,,,,,,,,,,,,,,,,,,,,,,TRUE,18,3,8,2,low,main_task,1,17,4,
html-keyboard-response,217,330499,0.0-217.0,9121,TRUE,null,<div class='exp'><p class='fix center'>+</p></div>,,,null,,,,,,,,,,,,,,,,,,,,,,,,,,,,,,,,,,,,
categorize-html,218,331457,0.0-218.0,9121,TRUE,455,2,,,1,,,,,,,,,,,,,,,,,,,,,,,,,,TRUE,18,3,9,2,low,main_task,1,17,5,
html-keyboard-response,219,331960,0.0-219.0,9121,TRUE,null,<div class='exp'><p class='fix center'>+</p></div>,,,null,,,,,,,,,,,,,,,,,,,,,,,,,,,,,,,,,,,,
categorize-html,220,332948,0.0-220.0,9121,TRUE,484,1,,,0,,,,,,,,,,,,,,,,,,,,,,,,,,TRUE,18,3,10,2,low,main_task,0,13,5,
html-keyboard-response,221,333450,0.0-221.0,9121,TRUE,null,<div class='exp'><p class='fix center'>+</p></div>,,,null,,,,,,,,,,,,,,,,,,,,,,,,,,,,,,,,,,,,
categorize-html,222,334505,0.0-222.0,9121,TRUE,552,2,,,1,,,,,,,,,,,,,,,,,,,,,,,,,,TRUE,18,3,11,2,low,main_task,1,17,6,
html-keyboard-response,223,335008,0.0-223.0,9121,TRUE,null,<div class='exp'><p class='fix center'>+</p></div>,,,null,,,,,,,,,,,,,,,,,,,,,,,,,,,,,,,,,,,,
categorize-html,224,336022,0.0-224.0,9121,TRUE,512,1,,,0,,,,,,,,,,,,,,,,,,,,,,,,,,TRUE,18,3,12,2,low,main_task,0,13,6,
html-keyboard-response,225,336524,0.0-225.0,9121,TRUE,null,<div class='exp'><p class='fix center'>+</p></div>,,,null,,,,,,,,,,,,,,,,,,,,,,,,,,,,,,,,,,,,
categorize-html,226,337652,0.0-226.0,9121,TRUE,625,1,,,0,,,,,,,,,,,,,,,,,,,,,,,,,,TRUE,18,3,13,2,low,main_task,0,13,7,
html-keyboard-response,227,338154,0.0-227.0,9121,TRUE,null,<div class='exp'><p class='fix center'>+</p></div>,,,null,,,,,,,,,,,,,,,,,,,,,,,,,,,,,,,,,,,,
categorize-html,228,339084,0.0-228.0,9121,TRUE,427,2,,,1,,,,,,,,,,,,,,,,,,,,,,,,,,TRUE,18,3,14,2,low,main_task,1,17,7,
html-keyboard-response,229,339586,0.0-229.0,9121,TRUE,null,<div class='exp'><p class='fix center'>+</p></div>,,,null,,,,,,,,,,,,,,,,,,,,,,,,,,,,,,,,,,,,
categorize-html,230,340777,0.0-230.0,9121,TRUE,688,2,,,1,,,,,,,,,,,,,,,,,,,,,,,,,,TRUE,18,3,15,2,low,main_task,1,17,8,
html-keyboard-response,231,341279,0.0-231.0,9121,TRUE,null,<div class='exp'><p class='fix center'>+</p></div>,,,null,,,,,,,,,,,,,,,,,,,,,,,,,,,,,,,,,,,,
categorize-html,232,342267,0.0-232.0,9121,TRUE,484,1,,,0,,,,,,,,,,,,,,,,,,,,,,,,,,TRUE,18,3,16,2,low,main_task,0,13,8,
html-keyboard-response,233,342769,0.0-233.0,9121,TRUE,null,<div class='exp'><p class='fix center'>+</p></div>,,,null,,,,,,,,,,,,,,,,,,,,,,,,,,,,,,,,,,,,
categorize-html,234,343790,0.0-234.0,9121,TRUE,518,2,,,1,,,,,,,,,,,,,,,,,,,,,,,,,,TRUE,18,3,17,2,low,main_task,1,17,9,
html-keyboard-response,235,344293,0.0-235.0,9121,TRUE,null,<div class='exp'><p class='fix center'>+</p></div>,,,null,,,,,,,,,,,,,,,,,,,,,,,,,,,,,,,,,,,,
categorize-html,236,345329,0.0-236.0,9121,TRUE,532,1,,,0,,,,,,,,,,,,,,,,,,,,,,,,,,TRUE,18,3,18,2,low,main_task,0,13,9,
html-keyboard-response,237,345832,0.0-237.0,9121,TRUE,null,<div class='exp'><p class='fix center'>+</p></div>,,,null,,,,,,,,,,,,,,,,,,,,,,,,,,,,,,,,,,,,
categorize-html,238,347067,0.0-238.0,9121,TRUE,731,1,,,0,,,,,,,,,,,,,,,,,,,,,,,,,,TRUE,18,3,19,2,low,main_task,0,13,10,
html-keyboard-response,239,347569,0.0-239.0,9121,TRUE,null,<div class='exp'><p class='fix center'>+</p></div>,,,null,,,,,,,,,,,,,,,,,,,,,,,,,,,,,,,,,,,,
categorize-html,240,348629,0.0-240.0,9121,TRUE,557,2,,,1,,,,,,,,,,,,,,,,,,,,,,,,,,TRUE,18,3,20,2,low,main_task,1,17,10,
html-keyboard-response,241,349132,0.0-241.0,9121,TRUE,null,<div class='exp'><p class='fix center'>+</p></div>,,,null,,,,,,,,,,,,,,,,,,,,,,,,,,,,,,,,,,,,
categorize-html,242,350134,0.0-242.0,9121,TRUE,499,1,,,0,,,,,,,,,,,,,,,,,,,,,,,,,,TRUE,18,3,21,2,low,main_task,0,13,11,
html-keyboard-response,243,350637,0.0-243.0,9121,TRUE,null,<div class='exp'><p class='fix center'>+</p></div>,,,null,,,,,,,,,,,,,,,,,,,,,,,,,,,,,,,,,,,,
categorize-html,244,352954,0.0-244.0,9121,TRUE,1814,1,,,0,,,,,,,,,,,,,,,,,,,,,,,,,,TRUE,18,3,22,2,low,main_task,0,13,12,
html-keyboard-response,245,353455,0.0-245.0,9121,TRUE,null,<div class='exp'><p class='fix center'>+</p></div>,,,null,,,,,,,,,,,,,,,,,,,,,,,,,,,,,,,,,,,,
categorize-html,246,354715,0.0-246.0,9121,TRUE,757,2,,,1,,,,,,,,,,,,,,,,,,,,,,,,,,TRUE,18,3,23,2,low,main_task,1,17,11,
html-keyboard-response,247,355218,0.0-247.0,9121,TRUE,null,<div class='exp'><p class='fix center'>+</p></div>,,,null,,,,,,,,,,,,,,,,,,,,,,,,,,,,,,,,,,,,
categorize-html,248,356390,0.0-248.0,9121,TRUE,669,2,,,1,,,,,,,,,,,,,,,,,,,,,,,,,,TRUE,18,3,24,2,low,main_task,1,17,12,
html-keyboard-response,249,356893,0.0-249.0,9121,TRUE,null,<div class='exp'><p class='fix center'>+</p></div>,,,null,,,,,,,,,,,,,,,,,,,,,,,,,,,,,,,,,,,,
categorize-html,250,358183,0.0-250.0,9121,TRUE,786,1,,,0,,,,,,,,,,,,,,,,,,,,,,,,,,TRUE,18,3,25,2,low,main_task,0,13,13,
html-keyboard-response,251,358686,0.0-251.0,9121,TRUE,null,<div class='exp'><p class='fix center'>+</p></div>,,,null,,,,,,,,,,,,,,,,,,,,,,,,,,,,,,,,,,,,
categorize-html,252,359393,0.0-252.0,9121,TRUE,203,2,,,1,,,,,,,,,,,,,,,,,,,,,,,,,,TRUE,18,3,26,2,low,main_task,1,17,13,
html-keyboard-response,253,359895,0.0-253.0,9121,TRUE,null,<div class='exp'><p class='fix center'>+</p></div>,,,null,,,,,,,,,,,,,,,,,,,,,,,,,,,,,,,,,,,,
categorize-html,254,360592,0.0-254.0,9121,TRUE,195,1,,,1,,,,,,,,,,,,,,,,,,,,,,,,,,FALSE,18,3,27,2,low,main_task,2,Infinity,0,
html-keyboard-response,255,361095,0.0-255.0,9121,TRUE,null,<div class='exp'><p class='fix center'>+</p></div>,,,null,,,,,,,,,,,,,,,,,,,,,,,,,,,,,,,,,,,,
categorize-html,256,362097,0.0-256.0,9121,TRUE,499,2,,,0,,,,,,,,,,,,,,,,,,,,,,,,,,FALSE,18,3,28,2,low,main_task,1,17,0,
html-keyboard-response,257,362599,0.0-257.0,9121,TRUE,null,<div class='exp'><p class='fix center'>+</p></div>,,,null,,,,,,,,,,,,,,,,,,,,,,,,,,,,,,,,,,,,
categorize-html,258,364670,0.0-258.0,9121,TRUE,1568,2,,,1,,,,,,,,,,,,,,,,,,,,,,,,,,TRUE,18,3,29,2,low,main_task,1,17,1,
html-keyboard-response,259,365173,0.0-259.0,9121,TRUE,null,<div class='exp'><p class='fix center'>+</p></div>,,,null,,,,,,,,,,,,,,,,,,,,,,,,,,,,,,,,,,,,
categorize-html,260,366053,0.0-260.0,9121,TRUE,377,1,,,0,,,,,,,,,,,,,,,,,,,,,,,,,,FALSE,18,3,30,2,low,main_task,2,Infinity,0,
html-keyboard-response,261,366992,0.0-261.0,9121,TRUE,936,"<div class=""center""><p>End of block - you earned 27 points!</p>    <br><p>You have a 1 minute break before the next block begins, but you can press space to continue now.</p></div>",,,32,,,,,,,,,,,,,,,,,,,,,,,,,,,,,,,,,,,,
html-keyboard-response,262,370813,0.0-262.0,9121,TRUE,3820,"<div class='exp'><p>Block 3 of 21. <br><br> Take some time to identify the images below:</p><table class='center'><tr><td><img class=""disp"" src=""static/img/images9/image1.jpg""></td><td><img class=""disp"" src=""static/img/images9/image2.jpg""></td><td><img class=""disp"" src=""static/img/images9/image3.jpg""></td></tr></table></div><p class=""continue"">[Press SPACE to continue]</p>",,,32,,,,,,,,,,,,,,,,,,,,,,,,,,,,,,,,,,,,
html-keyboard-response,263,371316,0.0-263.0,9121,TRUE,null,<div class='exp'><p class='fix center'>+</p></div>,,,null,,,,,,,,,,,,,,,,,,,,,,,,,,,,,,,,,,,,
categorize-html,264,372658,0.0-264.0,9121,TRUE,838,1,,,0,,,,,,,,,,,,,,,,,,,,,,,,,,FALSE,9,5,1,3,low,main_task,1,12,0,
html-keyboard-response,265,373161,0.0-265.0,9121,TRUE,null,<div class='exp'><p class='fix center'>+</p></div>,,,null,,,,,,,,,,,,,,,,,,,,,,,,,,,,,,,,,,,,
categorize-html,266,374077,0.0-266.0,9121,TRUE,412,2,,,0,,,,,,,,,,,,,,,,,,,,,,,,,,TRUE,9,5,2,3,low,main_task,0,15,1,
html-keyboard-response,267,374579,0.0-267.0,9121,TRUE,null,<div class='exp'><p class='fix center'>+</p></div>,,,null,,,,,,,,,,,,,,,,,,,,,,,,,,,,,,,,,,,,
categorize-html,268,375665,0.0-268.0,9121,TRUE,583,3,,,0,,,,,,,,,,,,,,,,,,,,,,,,,,FALSE,9,5,3,3,low,main_task,1,18,0,
html-keyboard-response,269,376168,0.0-269.0,9121,TRUE,null,<div class='exp'><p class='fix center'>+</p></div>,,,null,,,,,,,,,,,,,,,,,,,,,,,,,,,,,,,,,,,,
categorize-html,270,377423,0.0-270.0,9121,TRUE,752,3,,,1,,,,,,,,,,,,,,,,,,,,,,,,,,TRUE,9,5,4,3,low,main_task,1,18,1,
html-keyboard-response,271,377925,0.0-271.0,9121,TRUE,null,<div class='exp'><p class='fix center'>+</p></div>,,,null,,,,,,,,,,,,,,,,,,,,,,,,,,,,,,,,,,,,
categorize-html,272,379270,0.0-272.0,9121,TRUE,842,1,,,0,,,,,,,,,,,,,,,,,,,,,,,,,,FALSE,9,5,5,3,low,main_task,1,12,0,
html-keyboard-response,273,379772,0.0-273.0,9121,TRUE,null,<div class='exp'><p class='fix center'>+</p></div>,,,null,,,,,,,,,,,,,,,,,,,,,,,,,,,,,,,,,,,,
categorize-html,274,380734,0.0-274.0,9121,TRUE,459,2,,,0,,,,,,,,,,,,,,,,,,,,,,,,,,TRUE,9,5,6,3,low,main_task,0,15,2,
html-keyboard-response,275,381237,0.0-275.0,9121,TRUE,null,<div class='exp'><p class='fix center'>+</p></div>,,,null,,,,,,,,,,,,,,,,,,,,,,,,,,,,,,,,,,,,
categorize-html,276,382166,0.0-276.0,9121,TRUE,426,3,,,1,,,,,,,,,,,,,,,,,,,,,,,,,,TRUE,9,5,7,3,low,main_task,1,18,2,
html-keyboard-response,277,382668,0.0-277.0,9121,TRUE,null,<div class='exp'><p class='fix center'>+</p></div>,,,null,,,,,,,,,,,,,,,,,,,,,,,,,,,,,,,,,,,,
categorize-html,278,383659,0.0-278.0,9121,TRUE,487,2,,,2,,,,,,,,,,,,,,,,,,,,,,,,,,FALSE,9,5,8,3,low,main_task,0,15,0,
html-keyboard-response,279,384161,0.0-279.0,9121,TRUE,null,<div class='exp'><p class='fix center'>+</p></div>,,,null,,,,,,,,,,,,,,,,,,,,,,,,,,,,,,,,,,,,
categorize-html,280,385080,0.0-280.0,9121,TRUE,415,2,,,1,,,,,,,,,,,,,,,,,,,,,,,,,,FALSE,9,5,9,3,low,main_task,0,15,0,
html-keyboard-response,281,385582,0.0-281.0,9121,TRUE,null,<div class='exp'><p class='fix center'>+</p></div>,,,null,,,,,,,,,,,,,,,,,,,,,,,,,,,,,,,,,,,,
categorize-html,282,386782,0.0-282.0,9121,TRUE,697,1,,,1,,,,,,,,,,,,,,,,,,,,,,,,,,TRUE,9,5,10,3,low,main_task,1,12,1,
html-keyboard-response,283,387284,0.0-283.0,9121,TRUE,null,<div class='exp'><p class='fix center'>+</p></div>,,,null,,,,,,,,,,,,,,,,,,,,,,,,,,,,,,,,,,,,
categorize-html,284,388426,0.0-284.0,9121,TRUE,639,2,,,0,,,,,,,,,,,,,,,,,,,,,,,,,,TRUE,9,5,11,3,low,main_task,0,15,1,
html-keyboard-response,285,388928,0.0-285.0,9121,TRUE,null,<div class='exp'><p class='fix center'>+</p></div>,,,null,,,,,,,,,,,,,,,,,,,,,,,,,,,,,,,,,,,,
categorize-html,286,390031,0.0-286.0,9121,TRUE,600,3,,,1,,,,,,,,,,,,,,,,,,,,,,,,,,TRUE,9,5,12,3,low,main_task,1,18,3,
html-keyboard-response,287,390533,0.0-287.0,9121,TRUE,null,<div class='exp'><p class='fix center'>+</p></div>,,,null,,,,,,,,,,,,,,,,,,,,,,,,,,,,,,,,,,,,
categorize-html,288,391555,0.0-288.0,9121,TRUE,518,1,,,1,,,,,,,,,,,,,,,,,,,,,,,,,,TRUE,9,5,13,3,low,main_task,1,12,2,
html-keyboard-response,289,392058,0.0-289.0,9121,TRUE,null,<div class='exp'><p class='fix center'>+</p></div>,,,null,,,,,,,,,,,,,,,,,,,,,,,,,,,,,,,,,,,,
categorize-html,290,392968,0.0-290.0,9121,TRUE,406,3,,,0,,,,,,,,,,,,,,,,,,,,,,,,,,FALSE,9,5,14,3,low,main_task,1,18,0,
html-keyboard-response,291,393470,0.0-291.0,9121,TRUE,null,<div class='exp'><p class='fix center'>+</p></div>,,,null,,,,,,,,,,,,,,,,,,,,,,,,,,,,,,,,,,,,
categorize-html,292,394619,0.0-292.0,9121,TRUE,645,1,,,1,,,,,,,,,,,,,,,,,,,,,,,,,,TRUE,9,5,15,3,low,main_task,1,12,3,
html-keyboard-response,293,395121,0.0-293.0,9121,TRUE,null,<div class='exp'><p class='fix center'>+</p></div>,,,null,,,,,,,,,,,,,,,,,,,,,,,,,,,,,,,,,,,,
categorize-html,294,396169,0.0-294.0,9121,TRUE,544,2,,,0,,,,,,,,,,,,,,,,,,,,,,,,,,TRUE,9,5,16,3,low,main_task,0,15,2,
html-keyboard-response,295,396671,0.0-295.0,9121,TRUE,null,<div class='exp'><p class='fix center'>+</p></div>,,,null,,,,,,,,,,,,,,,,,,,,,,,,,,,,,,,,,,,,
categorize-html,296,397773,0.0-296.0,9121,TRUE,598,3,,,1,,,,,,,,,,,,,,,,,,,,,,,,,,TRUE,9,5,17,3,low,main_task,1,18,1,
html-keyboard-response,297,398276,0.0-297.0,9121,TRUE,null,<div class='exp'><p class='fix center'>+</p></div>,,,null,,,,,,,,,,,,,,,,,,,,,,,,,,,,,,,,,,,,
categorize-html,298,399800,0.0-298.0,9121,TRUE,1021,3,,,1,,,,,,,,,,,,,,,,,,,,,,,,,,TRUE,9,5,18,3,low,main_task,1,18,2,
html-keyboard-response,299,400303,0.0-299.0,9121,TRUE,null,<div class='exp'><p class='fix center'>+</p></div>,,,null,,,,,,,,,,,,,,,,,,,,,,,,,,,,,,,,,,,,
categorize-html,300,401563,0.0-300.0,9121,TRUE,757,1,,,1,,,,,,,,,,,,,,,,,,,,,,,,,,TRUE,9,5,19,3,low,main_task,1,12,4,
html-keyboard-response,301,402066,0.0-301.0,9121,TRUE,null,<div class='exp'><p class='fix center'>+</p></div>,,,null,,,,,,,,,,,,,,,,,,,,,,,,,,,,,,,,,,,,
categorize-html,302,403226,0.0-302.0,9121,TRUE,657,1,,,1,,,,,,,,,,,,,,,,,,,,,,,,,,TRUE,9,5,20,3,low,main_task,1,12,5,
html-keyboard-response,303,403729,0.0-303.0,9121,TRUE,null,<div class='exp'><p class='fix center'>+</p></div>,,,null,,,,,,,,,,,,,,,,,,,,,,,,,,,,,,,,,,,,
categorize-html,304,404934,0.0-304.0,9121,TRUE,702,2,,,1,,,,,,,,,,,,,,,,,,,,,,,,,,FALSE,9,5,21,3,low,main_task,0,15,0,
html-keyboard-response,305,405436,0.0-305.0,9121,TRUE,null,<div class='exp'><p class='fix center'>+</p></div>,,,null,,,,,,,,,,,,,,,,,,,,,,,,,,,,,,,,,,,,
categorize-html,306,406559,0.0-306.0,9121,TRUE,619,3,,,1,,,,,,,,,,,,,,,,,,,,,,,,,,TRUE,9,5,22,3,low,main_task,1,18,3,
html-keyboard-response,307,407061,0.0-307.0,9121,TRUE,null,<div class='exp'><p class='fix center'>+</p></div>,,,null,,,,,,,,,,,,,,,,,,,,,,,,,,,,,,,,,,,,
categorize-html,308,408084,0.0-308.0,9121,TRUE,519,1,,,1,,,,,,,,,,,,,,,,,,,,,,,,,,TRUE,9,5,23,3,low,main_task,1,12,6,
html-keyboard-response,309,408586,0.0-309.0,9121,TRUE,null,<div class='exp'><p class='fix center'>+</p></div>,,,null,,,,,,,,,,,,,,,,,,,,,,,,,,,,,,,,,,,,
categorize-html,310,409476,0.0-310.0,9121,TRUE,386,2,,,0,,,,,,,,,,,,,,,,,,,,,,,,,,TRUE,9,5,24,3,low,main_task,0,15,1,
html-keyboard-response,311,409977,0.0-311.0,9121,TRUE,null,<div class='exp'><p class='fix center'>+</p></div>,,,null,,,,,,,,,,,,,,,,,,,,,,,,,,,,,,,,,,,,
categorize-html,312,411232,0.0-312.0,9121,TRUE,751,2,,,0,,,,,,,,,,,,,,,,,,,,,,,,,,TRUE,9,5,25,3,low,main_task,0,15,2,
html-keyboard-response,313,411735,0.0-313.0,9121,TRUE,null,<div class='exp'><p class='fix center'>+</p></div>,,,null,,,,,,,,,,,,,,,,,,,,,,,,,,,,,,,,,,,,
categorize-html,314,412657,0.0-314.0,9121,TRUE,418,3,,,1,,,,,,,,,,,,,,,,,,,,,,,,,,TRUE,9,5,26,3,low,main_task,1,18,4,
html-keyboard-response,315,413159,0.0-315.0,9121,TRUE,null,<div class='exp'><p class='fix center'>+</p></div>,,,null,,,,,,,,,,,,,,,,,,,,,,,,,,,,,,,,,,,,
categorize-html,316,414644,0.0-316.0,9121,TRUE,982,1,,,1,,,,,,,,,,,,,,,,,,,,,,,,,,TRUE,9,5,27,3,low,main_task,1,12,7,
html-keyboard-response,317,415147,0.0-317.0,9121,TRUE,null,<div class='exp'><p class='fix center'>+</p></div>,,,null,,,,,,,,,,,,,,,,,,,,,,,,,,,,,,,,,,,,
categorize-html,318,416101,0.0-318.0,9121,TRUE,452,3,,,1,,,,,,,,,,,,,,,,,,,,,,,,,,TRUE,9,5,28,3,low,main_task,1,18,5,
html-keyboard-response,319,416603,0.0-319.0,9121,TRUE,null,<div class='exp'><p class='fix center'>+</p></div>,,,null,,,,,,,,,,,,,,,,,,,,,,,,,,,,,,,,,,,,
categorize-html,320,417641,0.0-320.0,9121,TRUE,535,1,,,1,,,,,,,,,,,,,,,,,,,,,,,,,,TRUE,9,5,29,3,low,main_task,1,12,8,
html-keyboard-response,321,418142,0.0-321.0,9121,TRUE,null,<div class='exp'><p class='fix center'>+</p></div>,,,null,,,,,,,,,,,,,,,,,,,,,,,,,,,,,,,,,,,,
categorize-html,322,419172,0.0-322.0,9121,TRUE,528,2,,,0,,,,,,,,,,,,,,,,,,,,,,,,,,TRUE,9,5,30,3,low,main_task,0,15,3,
html-keyboard-response,323,419675,0.0-323.0,9121,TRUE,null,<div class='exp'><p class='fix center'>+</p></div>,,,null,,,,,,,,,,,,,,,,,,,,,,,,,,,,,,,,,,,,
categorize-html,324,421366,0.0-324.0,9121,TRUE,1188,3,,,1,,,,,,,,,,,,,,,,,,,,,,,,,,TRUE,9,5,31,3,low,main_task,1,18,6,
html-keyboard-response,325,421869,0.0-325.0,9121,TRUE,null,<div class='exp'><p class='fix center'>+</p></div>,,,null,,,,,,,,,,,,,,,,,,,,,,,,,,,,,,,,,,,,
categorize-html,326,422884,0.0-326.0,9121,TRUE,513,3,,,1,,,,,,,,,,,,,,,,,,,,,,,,,,TRUE,9,5,32,3,low,main_task,1,18,7,
html-keyboard-response,327,423387,0.0-327.0,9121,TRUE,null,<div class='exp'><p class='fix center'>+</p></div>,,,null,,,,,,,,,,,,,,,,,,,,,,,,,,,,,,,,,,,,
categorize-html,328,424690,0.0-328.0,9121,TRUE,799,2,,,0,,,,,,,,,,,,,,,,,,,,,,,,,,TRUE,9,5,33,3,low,main_task,0,15,4,
html-keyboard-response,329,425192,0.0-329.0,9121,TRUE,null,<div class='exp'><p class='fix center'>+</p></div>,,,null,,,,,,,,,,,,,,,,,,,,,,,,,,,,,,,,,,,,
categorize-html,330,426421,0.0-330.0,9121,TRUE,725,1,,,1,,,,,,,,,,,,,,,,,,,,,,,,,,TRUE,9,5,34,3,low,main_task,1,12,9,
html-keyboard-response,331,426923,0.0-331.0,9121,TRUE,null,<div class='exp'><p class='fix center'>+</p></div>,,,null,,,,,,,,,,,,,,,,,,,,,,,,,,,,,,,,,,,,
categorize-html,332,428071,0.0-332.0,9121,TRUE,644,1,,,1,,,,,,,,,,,,,,,,,,,,,,,,,,TRUE,9,5,35,3,low,main_task,1,12,10,
html-keyboard-response,333,428573,0.0-333.0,9121,TRUE,null,<div class='exp'><p class='fix center'>+</p></div>,,,null,,,,,,,,,,,,,,,,,,,,,,,,,,,,,,,,,,,,
categorize-html,334,429789,0.0-334.0,9121,TRUE,713,2,,,0,,,,,,,,,,,,,,,,,,,,,,,,,,TRUE,9,5,36,3,low,main_task,0,15,5,
html-keyboard-response,335,430292,0.0-335.0,9121,TRUE,null,<div class='exp'><p class='fix center'>+</p></div>,,,null,,,,,,,,,,,,,,,,,,,,,,,,,,,,,,,,,,,,
categorize-html,336,431493,0.0-336.0,9121,TRUE,698,3,,,1,,,,,,,,,,,,,,,,,,,,,,,,,,TRUE,9,5,37,3,low,main_task,1,18,8,
html-keyboard-response,337,431996,0.0-337.0,9121,TRUE,null,<div class='exp'><p class='fix center'>+</p></div>,,,null,,,,,,,,,,,,,,,,,,,,,,,,,,,,,,,,,,,,
categorize-html,338,433280,0.0-338.0,9121,TRUE,782,2,,,0,,,,,,,,,,,,,,,,,,,,,,,,,,TRUE,9,5,38,3,low,main_task,0,15,6,
html-keyboard-response,339,433782,0.0-339.0,9121,TRUE,null,<div class='exp'><p class='fix center'>+</p></div>,,,null,,,,,,,,,,,,,,,,,,,,,,,,,,,,,,,,,,,,
categorize-html,340,435015,0.0-340.0,9121,TRUE,730,1,,,1,,,,,,,,,,,,,,,,,,,,,,,,,,TRUE,9,5,39,3,low,main_task,1,12,11,
html-keyboard-response,341,435518,0.0-341.0,9121,TRUE,null,<div class='exp'><p class='fix center'>+</p></div>,,,null,,,,,,,,,,,,,,,,,,,,,,,,,,,,,,,,,,,,
categorize-html,342,437560,0.0-342.0,9121,TRUE,1539,1,,,1,,,,,,,,,,,,,,,,,,,,,,,,,,TRUE,9,5,40,3,low,main_task,1,12,12,
html-keyboard-response,343,438063,0.0-343.0,9121,TRUE,null,<div class='exp'><p class='fix center'>+</p></div>,,,null,,,,,,,,,,,,,,,,,,,,,,,,,,,,,,,,,,,,
categorize-html,344,439074,0.0-344.0,9121,TRUE,508,3,,,1,,,,,,,,,,,,,,,,,,,,,,,,,,TRUE,9,5,41,3,low,main_task,1,18,9,
html-keyboard-response,345,439577,0.0-345.0,9121,TRUE,null,<div class='exp'><p class='fix center'>+</p></div>,,,null,,,,,,,,,,,,,,,,,,,,,,,,,,,,,,,,,,,,
categorize-html,346,440584,0.0-346.0,9121,TRUE,503,2,,,1,,,,,,,,,,,,,,,,,,,,,,,,,,FALSE,9,5,42,3,low,main_task,0,15,0,
html-keyboard-response,347,441086,0.0-347.0,9121,TRUE,null,<div class='exp'><p class='fix center'>+</p></div>,,,null,,,,,,,,,,,,,,,,,,,,,,,,,,,,,,,,,,,,
categorize-html,348,442127,0.0-348.0,9121,TRUE,538,3,,,1,,,,,,,,,,,,,,,,,,,,,,,,,,TRUE,9,5,43,3,low,main_task,1,18,10,
html-keyboard-response,349,442630,0.0-349.0,9121,TRUE,null,<div class='exp'><p class='fix center'>+</p></div>,,,null,,,,,,,,,,,,,,,,,,,,,,,,,,,,,,,,,,,,
categorize-html,350,443772,0.0-350.0,9121,TRUE,639,2,,,1,,,,,,,,,,,,,,,,,,,,,,,,,,FALSE,9,5,44,3,low,main_task,0,15,0,
html-keyboard-response,351,444275,0.0-351.0,9121,TRUE,null,<div class='exp'><p class='fix center'>+</p></div>,,,null,,,,,,,,,,,,,,,,,,,,,,,,,,,,,,,,,,,,
categorize-html,352,445320,0.0-352.0,9121,TRUE,542,1,,,1,,,,,,,,,,,,,,,,,,,,,,,,,,FALSE,9,5,45,3,low,main_task,0,Infinity,0,
html-keyboard-response,353,486018,0.0-353.0,9121,TRUE,40696,"<div class=""center""><p>End of block - you earned 35 points!</p>    <br><p>You have a 1 minute break before the next block begins, but you can press space to continue now.</p></div>",,,32,,,,,,,,,,,,,,,,,,,,,,,,,,,,,,,,,,,,
html-keyboard-response,354,491597,0.0-354.0,9121,TRUE,5577,"<div class='exp'><p>Block 4 of 21. <br><br> Take some time to identify the images below:</p><table class='center'><tr><td><img class=""disp"" src=""static/img/images3/image1.jpg""></td><td><img class=""disp"" src=""static/img/images3/image2.jpg""></td><td><img class=""disp"" src=""static/img/images3/image3.jpg""></td></tr><tr><td><img class=""disp"" src=""static/img/images3/image4.jpg""></td><td><img class=""disp"" src=""static/img/images3/image5.jpg""></td></table></div><p class=""continue"">[Press SPACE to continue]</p>",,,32,,,,,,,,,,,,,,,,,,,,,,,,,,,,,,,,,,,,
html-keyboard-response,355,492098,0.0-355.0,9121,TRUE,null,<div class='exp'><p class='fix center'>+</p></div>,,,null,,,,,,,,,,,,,,,,,,,,,,,,,,,,,,,,,,,,
categorize-html,356,492921,0.0-356.0,9121,TRUE,320,1,,,0,,,,,,,,,,,,,,,,,,,,,,,,,,TRUE,3,6,1,5,high,main_task,0,16,1,
html-keyboard-response,357,493424,0.0-357.0,9121,TRUE,null,<div class='exp'><p class='fix center'>+</p></div>,,,null,,,,,,,,,,,,,,,,,,,,,,,,,,,,,,,,,,,,
categorize-html,358,494231,0.0-358.0,9121,TRUE,304,2,,,0,,,,,,,,,,,,,,,,,,,,,,,,,,FALSE,3,6,2,5,high,main_task,2,14,0,
html-keyboard-response,359,494733,0.0-359.0,9121,TRUE,null,<div class='exp'><p class='fix center'>+</p></div>,,,null,,,,,,,,,,,,,,,,,,,,,,,,,,,,,,,,,,,,
categorize-html,360,495654,0.0-360.0,9121,TRUE,417,3,,,0,,,,,,,,,,,,,,,,,,,,,,,,,,FALSE,3,6,3,5,high,main_task,1,16,0,
html-keyboard-response,361,496156,0.0-361.0,9121,TRUE,null,<div class='exp'><p class='fix center'>+</p></div>,,,null,,,,,,,,,,,,,,,,,,,,,,,,,,,,,,,,,,,,
categorize-html,362,497105,0.0-362.0,9121,TRUE,445,4,,,0,,,,,,,,,,,,,,,,,,,,,,,,,,TRUE,3,6,4,5,high,main_task,0,13,1,
html-keyboard-response,363,497608,0.0-363.0,9121,TRUE,null,<div class='exp'><p class='fix center'>+</p></div>,,,null,,,,,,,,,,,,,,,,,,,,,,,,,,,,,,,,,,,,
categorize-html,364,498597,0.0-364.0,9121,TRUE,486,5,,,0,,,,,,,,,,,,,,,,,,,,,,,,,,FALSE,3,6,5,5,high,main_task,2,14,0,
html-keyboard-response,365,499099,0.0-365.0,9121,TRUE,null,<div class='exp'><p class='fix center'>+</p></div>,,,null,,,,,,,,,,,,,,,,,,,,,,,,,,,,,,,,,,,,
categorize-html,366,500134,0.0-366.0,9121,TRUE,531,5,,,0,,,,,,,,,,,,,,,,,,,,,,,,,,FALSE,3,6,6,5,high,main_task,2,14,0,
html-keyboard-response,367,500637,0.0-367.0,9121,TRUE,null,<div class='exp'><p class='fix center'>+</p></div>,,,null,,,,,,,,,,,,,,,,,,,,,,,,,,,,,,,,,,,,
categorize-html,368,501647,0.0-368.0,9121,TRUE,507,1,,,0,,,,,,,,,,,,,,,,,,,,,,,,,,TRUE,3,6,7,5,high,main_task,0,16,2,
html-keyboard-response,369,502149,0.0-369.0,9121,TRUE,null,<div class='exp'><p class='fix center'>+</p></div>,,,null,,,,,,,,,,,,,,,,,,,,,,,,,,,,,,,,,,,,
categorize-html,370,503287,0.0-370.0,9121,TRUE,635,4,,,0,,,,,,,,,,,,,,,,,,,,,,,,,,TRUE,3,6,8,5,high,main_task,0,13,2,
html-keyboard-response,371,503789,0.0-371.0,9121,TRUE,null,<div class='exp'><p class='fix center'>+</p></div>,,,null,,,,,,,,,,,,,,,,,,,,,,,,,,,,,,,,,,,,
categorize-html,372,504874,0.0-372.0,9121,TRUE,582,2,,,1,,,,,,,,,,,,,,,,,,,,,,,,,,FALSE,3,6,9,5,high,main_task,2,14,0,
html-keyboard-response,373,505377,0.0-373.0,9121,TRUE,null,<div class='exp'><p class='fix center'>+</p></div>,,,null,,,,,,,,,,,,,,,,,,,,,,,,,,,,,,,,,,,,
categorize-html,374,506503,0.0-374.0,9121,TRUE,623,3,,,1,,,,,,,,,,,,,,,,,,,,,,,,,,TRUE,3,6,10,5,high,main_task,1,16,1,
html-keyboard-response,375,507006,0.0-375.0,9121,TRUE,null,<div class='exp'><p class='fix center'>+</p></div>,,,null,,,,,,,,,,,,,,,,,,,,,,,,,,,,,,,,,,,,
categorize-html,376,508488,0.0-376.0,9121,TRUE,978,2,,,1,,,,,,,,,,,,,,,,,,,,,,,,,,FALSE,3,6,11,5,high,main_task,2,14,0,
html-keyboard-response,377,508991,0.0-377.0,9121,TRUE,null,<div class='exp'><p class='fix center'>+</p></div>,,,null,,,,,,,,,,,,,,,,,,,,,,,,,,,,,,,,,,,,
categorize-html,378,510252,0.0-378.0,9121,TRUE,758,1,,,0,,,,,,,,,,,,,,,,,,,,,,,,,,TRUE,3,6,12,5,high,main_task,0,16,3,
html-keyboard-response,379,510755,0.0-379.0,9121,TRUE,null,<div class='exp'><p class='fix center'>+</p></div>,,,null,,,,,,,,,,,,,,,,,,,,,,,,,,,,,,,,,,,,
categorize-html,380,511791,0.0-380.0,9121,TRUE,532,3,,,0,,,,,,,,,,,,,,,,,,,,,,,,,,FALSE,3,6,13,5,high,main_task,1,16,0,
html-keyboard-response,381,512292,0.0-381.0,9121,TRUE,null,<div class='exp'><p class='fix center'>+</p></div>,,,null,,,,,,,,,,,,,,,,,,,,,,,,,,,,,,,,,,,,
categorize-html,382,513588,0.0-382.0,9121,TRUE,793,5,,,1,,,,,,,,,,,,,,,,,,,,,,,,,,FALSE,3,6,14,5,high,main_task,2,14,0,
html-keyboard-response,383,514091,0.0-383.0,9121,TRUE,null,<div class='exp'><p class='fix center'>+</p></div>,,,null,,,,,,,,,,,,,,,,,,,,,,,,,,,,,,,,,,,,
categorize-html,384,514995,0.0-384.0,9121,TRUE,397,3,,,2,,,,,,,,,,,,,,,,,,,,,,,,,,FALSE,3,6,15,5,high,main_task,1,16,0,
html-keyboard-response,385,515498,0.0-385.0,9121,TRUE,null,<div class='exp'><p class='fix center'>+</p></div>,,,null,,,,,,,,,,,,,,,,,,,,,,,,,,,,,,,,,,,,
categorize-html,386,516562,0.0-386.0,9121,TRUE,561,4,,,0,,,,,,,,,,,,,,,,,,,,,,,,,,TRUE,3,6,16,5,high,main_task,0,13,3,
html-keyboard-response,387,517064,0.0-387.0,9121,TRUE,null,<div class='exp'><p class='fix center'>+</p></div>,,,null,,,,,,,,,,,,,,,,,,,,,,,,,,,,,,,,,,,,
categorize-html,388,518704,0.0-388.0,9121,TRUE,1136,5,,,0,,,,,,,,,,,,,,,,,,,,,,,,,,FALSE,3,6,17,5,high,main_task,2,14,0,
html-keyboard-response,389,519207,0.0-389.0,9121,TRUE,null,<div class='exp'><p class='fix center'>+</p></div>,,,null,,,,,,,,,,,,,,,,,,,,,,,,,,,,,,,,,,,,
categorize-html,390,521711,0.0-390.0,9121,TRUE,null,1,,,-1,,,,,,,,,,,,,,,,,,,,,,,,,,FALSE,3,6,18,5,high,main_task,0,16,0,
html-keyboard-response,391,522214,0.0-391.0,9121,TRUE,null,<div class='exp'><p class='fix center'>+</p></div>,,,null,,,,,,,,,,,,,,,,,,,,,,,,,,,,,,,,,,,,
categorize-html,392,523063,0.0-392.0,9121,TRUE,346,3,,,0,,,,,,,,,,,,,,,,,,,,,,,,,,FALSE,3,6,19,5,high,main_task,1,16,0,
html-keyboard-response,393,523566,0.0-393.0,9121,TRUE,null,<div class='exp'><p class='fix center'>+</p></div>,,,null,,,,,,,,,,,,,,,,,,,,,,,,,,,,,,,,,,,,
categorize-html,394,524595,0.0-394.0,9121,TRUE,526,2,,,1,,,,,,,,,,,,,,,,,,,,,,,,,,FALSE,3,6,20,5,high,main_task,2,14,0,
html-keyboard-response,395,525097,0.0-395.0,9121,TRUE,null,<div class='exp'><p class='fix center'>+</p></div>,,,null,,,,,,,,,,,,,,,,,,,,,,,,,,,,,,,,,,,,
categorize-html,396,526147,0.0-396.0,9121,TRUE,547,4,,,1,,,,,,,,,,,,,,,,,,,,,,,,,,FALSE,3,6,21,5,high,main_task,0,13,0,
html-keyboard-response,397,526649,0.0-397.0,9121,TRUE,null,<div class='exp'><p class='fix center'>+</p></div>,,,null,,,,,,,,,,,,,,,,,,,,,,,,,,,,,,,,,,,,
categorize-html,398,527681,0.0-398.0,9121,TRUE,528,4,,,0,,,,,,,,,,,,,,,,,,,,,,,,,,TRUE,3,6,22,5,high,main_task,0,13,1,
html-keyboard-response,399,528182,0.0-399.0,9121,TRUE,null,<div class='exp'><p class='fix center'>+</p></div>,,,null,,,,,,,,,,,,,,,,,,,,,,,,,,,,,,,,,,,,
categorize-html,400,529583,0.0-400.0,9121,TRUE,897,5,,,0,,,,,,,,,,,,,,,,,,,,,,,,,,FALSE,3,6,23,5,high,main_task,2,14,0,
html-keyboard-response,401,530086,0.0-401.0,9121,TRUE,null,<div class='exp'><p class='fix center'>+</p></div>,,,null,,,,,,,,,,,,,,,,,,,,,,,,,,,,,,,,,,,,
categorize-html,402,531224,0.0-402.0,9121,TRUE,634,2,,,1,,,,,,,,,,,,,,,,,,,,,,,,,,FALSE,3,6,24,5,high,main_task,2,14,0,
html-keyboard-response,403,531727,0.0-403.0,9121,TRUE,null,<div class='exp'><p class='fix center'>+</p></div>,,,null,,,,,,,,,,,,,,,,,,,,,,,,,,,,,,,,,,,,
categorize-html,404,533137,0.0-404.0,9121,TRUE,907,1,,,2,,,,,,,,,,,,,,,,,,,,,,,,,,FALSE,3,6,25,5,high,main_task,0,16,0,
html-keyboard-response,405,533639,0.0-405.0,9121,TRUE,null,<div class='exp'><p class='fix center'>+</p></div>,,,null,,,,,,,,,,,,,,,,,,,,,,,,,,,,,,,,,,,,
categorize-html,406,535008,0.0-406.0,9121,TRUE,866,1,,,0,,,,,,,,,,,,,,,,,,,,,,,,,,TRUE,3,6,26,5,high,main_task,0,16,1,
html-keyboard-response,407,535511,0.0-407.0,9121,TRUE,null,<div class='exp'><p class='fix center'>+</p></div>,,,null,,,,,,,,,,,,,,,,,,,,,,,,,,,,,,,,,,,,
categorize-html,408,537254,0.0-408.0,9121,TRUE,1240,3,,,1,,,,,,,,,,,,,,,,,,,,,,,,,,TRUE,3,6,27,5,high,main_task,1,16,1,
html-keyboard-response,409,537756,0.0-409.0,9121,TRUE,null,<div class='exp'><p class='fix center'>+</p></div>,,,null,,,,,,,,,,,,,,,,,,,,,,,,,,,,,,,,,,,,
categorize-html,410,538977,0.0-410.0,9121,TRUE,717,5,,,1,,,,,,,,,,,,,,,,,,,,,,,,,,FALSE,3,6,28,5,high,main_task,2,14,0,
html-keyboard-response,411,539480,0.0-411.0,9121,TRUE,null,<div class='exp'><p class='fix center'>+</p></div>,,,null,,,,,,,,,,,,,,,,,,,,,,,,,,,,,,,,,,,,
categorize-html,412,540607,0.0-412.0,9121,TRUE,624,4,,,0,,,,,,,,,,,,,,,,,,,,,,,,,,TRUE,3,6,29,5,high,main_task,0,13,2,
html-keyboard-response,413,541110,0.0-413.0,9121,TRUE,null,<div class='exp'><p class='fix center'>+</p></div>,,,null,,,,,,,,,,,,,,,,,,,,,,,,,,,,,,,,,,,,
categorize-html,414,542753,0.0-414.0,9121,TRUE,1140,2,,,1,,,,,,,,,,,,,,,,,,,,,,,,,,FALSE,3,6,30,5,high,main_task,2,14,0,
html-keyboard-response,415,543256,0.0-415.0,9121,TRUE,null,<div class='exp'><p class='fix center'>+</p></div>,,,null,,,,,,,,,,,,,,,,,,,,,,,,,,,,,,,,,,,,
categorize-html,416,544502,0.0-416.0,9121,TRUE,743,5,,,1,,,,,,,,,,,,,,,,,,,,,,,,,,FALSE,3,6,31,5,high,main_task,2,14,0,
html-keyboard-response,417,545005,0.0-417.0,9121,TRUE,null,<div class='exp'><p class='fix center'>+</p></div>,,,null,,,,,,,,,,,,,,,,,,,,,,,,,,,,,,,,,,,,
categorize-html,418,546742,0.0-418.0,9121,TRUE,1233,2,,,0,,,,,,,,,,,,,,,,,,,,,,,,,,FALSE,3,6,32,5,high,main_task,2,14,0,
html-keyboard-response,419,547245,0.0-419.0,9121,TRUE,null,<div class='exp'><p class='fix center'>+</p></div>,,,null,,,,,,,,,,,,,,,,,,,,,,,,,,,,,,,,,,,,
categorize-html,420,548351,0.0-420.0,9121,TRUE,603,4,,,1,,,,,,,,,,,,,,,,,,,,,,,,,,FALSE,3,6,33,5,high,main_task,0,13,0,
html-keyboard-response,421,548853,0.0-421.0,9121,TRUE,null,<div class='exp'><p class='fix center'>+</p></div>,,,null,,,,,,,,,,,,,,,,,,,,,,,,,,,,,,,,,,,,
categorize-html,422,549914,0.0-422.0,9121,TRUE,557,1,,,2,,,,,,,,,,,,,,,,,,,,,,,,,,FALSE,3,6,34,5,high,main_task,0,16,0,
html-keyboard-response,423,550416,0.0-423.0,9121,TRUE,null,<div class='exp'><p class='fix center'>+</p></div>,,,null,,,,,,,,,,,,,,,,,,,,,,,,,,,,,,,,,,,,
categorize-html,424,552382,0.0-424.0,9121,TRUE,1462,4,,,1,,,,,,,,,,,,,,,,,,,,,,,,,,FALSE,3,6,35,5,high,main_task,0,13,0,
html-keyboard-response,425,552884,0.0-425.0,9121,TRUE,null,<div class='exp'><p class='fix center'>+</p></div>,,,null,,,,,,,,,,,,,,,,,,,,,,,,,,,,,,,,,,,,
categorize-html,426,554260,0.0-426.0,9121,TRUE,872,3,,,1,,,,,,,,,,,,,,,,,,,,,,,,,,TRUE,3,6,36,5,high,main_task,1,16,2,
html-keyboard-response,427,554762,0.0-427.0,9121,TRUE,null,<div class='exp'><p class='fix center'>+</p></div>,,,null,,,,,,,,,,,,,,,,,,,,,,,,,,,,,,,,,,,,
categorize-html,428,556804,0.0-428.0,9121,TRUE,1538,3,,,1,,,,,,,,,,,,,,,,,,,,,,,,,,TRUE,3,6,37,5,high,main_task,1,16,3,
html-keyboard-response,429,557306,0.0-429.0,9121,TRUE,null,<div class='exp'><p class='fix center'>+</p></div>,,,null,,,,,,,,,,,,,,,,,,,,,,,,,,,,,,,,,,,,
categorize-html,430,558504,0.0-430.0,9121,TRUE,695,5,,,1,,,,,,,,,,,,,,,,,,,,,,,,,,FALSE,3,6,38,5,high,main_task,2,14,0,
html-keyboard-response,431,559007,0.0-431.0,9121,TRUE,null,<div class='exp'><p class='fix center'>+</p></div>,,,null,,,,,,,,,,,,,,,,,,,,,,,,,,,,,,,,,,,,
categorize-html,432,560159,0.0-432.0,9121,TRUE,650,1,,,0,,,,,,,,,,,,,,,,,,,,,,,,,,TRUE,3,6,39,5,high,main_task,0,16,1,
html-keyboard-response,433,560662,0.0-433.0,9121,TRUE,null,<div class='exp'><p class='fix center'>+</p></div>,,,null,,,,,,,,,,,,,,,,,,,,,,,,,,,,,,,,,,,,
categorize-html,434,563166,0.0-434.0,9121,TRUE,null,3,,,-1,,,,,,,,,,,,,,,,,,,,,,,,,,FALSE,3,6,40,5,high,main_task,1,16,0,
html-keyboard-response,435,563669,0.0-435.0,9121,TRUE,null,<div class='exp'><p class='fix center'>+</p></div>,,,null,,,,,,,,,,,,,,,,,,,,,,,,,,,,,,,,,,,,
categorize-html,436,564625,0.0-436.0,9121,TRUE,452,2,,,1,,,,,,,,,,,,,,,,,,,,,,,,,,FALSE,3,6,41,5,high,main_task,2,14,0,
html-keyboard-response,437,565127,0.0-437.0,9121,TRUE,null,<div class='exp'><p class='fix center'>+</p></div>,,,null,,,,,,,,,,,,,,,,,,,,,,,,,,,,,,,,,,,,
categorize-html,438,567632,0.0-438.0,9121,TRUE,null,2,,,-1,,,,,,,,,,,,,,,,,,,,,,,,,,FALSE,3,6,42,5,high,main_task,2,14,0,
html-keyboard-response,439,568134,0.0-439.0,9121,TRUE,null,<div class='exp'><p class='fix center'>+</p></div>,,,null,,,,,,,,,,,,,,,,,,,,,,,,,,,,,,,,,,,,
categorize-html,440,568748,0.0-440.0,9121,TRUE,110,5,,,0,,,,,,,,,,,,,,,,,,,,,,,,,,FALSE,3,6,43,5,high,main_task,2,14,0,
html-keyboard-response,441,569251,0.0-441.0,9121,TRUE,null,<div class='exp'><p class='fix center'>+</p></div>,,,null,,,,,,,,,,,,,,,,,,,,,,,,,,,,,,,,,,,,
categorize-html,442,570017,0.0-442.0,9121,TRUE,263,4,,,1,,,,,,,,,,,,,,,,,,,,,,,,,,FALSE,3,6,44,5,high,main_task,0,13,0,
html-keyboard-response,443,570520,0.0-443.0,9121,TRUE,null,<div class='exp'><p class='fix center'>+</p></div>,,,null,,,,,,,,,,,,,,,,,,,,,,,,,,,,,,,,,,,,
categorize-html,444,571149,0.0-444.0,9121,TRUE,126,1,,,2,,,,,,,,,,,,,,,,,,,,,,,,,,FALSE,3,6,45,5,high,main_task,0,16,0,
html-keyboard-response,445,571651,0.0-445.0,9121,TRUE,null,<div class='exp'><p class='fix center'>+</p></div>,,,null,,,,,,,,,,,,,,,,,,,,,,,,,,,,,,,,,,,,
categorize-html,446,572363,0.0-446.0,9121,TRUE,208,5,,,1,,,,,,,,,,,,,,,,,,,,,,,,,,FALSE,3,6,46,5,high,main_task,2,14,0,
html-keyboard-response,447,572865,0.0-447.0,9121,TRUE,null,<div class='exp'><p class='fix center'>+</p></div>,,,null,,,,,,,,,,,,,,,,,,,,,,,,,,,,,,,,,,,,
categorize-html,448,573709,0.0-448.0,9121,TRUE,340,1,,,0,,,,,,,,,,,,,,,,,,,,,,,,,,TRUE,3,6,47,5,high,main_task,0,16,1,
html-keyboard-response,449,574212,0.0-449.0,9121,TRUE,null,<div class='exp'><p class='fix center'>+</p></div>,,,null,,,,,,,,,,,,,,,,,,,,,,,,,,,,,,,,,,,,
categorize-html,450,575219,0.0-450.0,9121,TRUE,504,4,,,1,,,,,,,,,,,,,,,,,,,,,,,,,,FALSE,3,6,48,5,high,main_task,0,13,0,
html-keyboard-response,451,575721,0.0-451.0,9121,TRUE,null,<div class='exp'><p class='fix center'>+</p></div>,,,null,,,,,,,,,,,,,,,,,,,,,,,,,,,,,,,,,,,,
categorize-html,452,576914,0.0-452.0,9121,TRUE,690,3,,,0,,,,,,,,,,,,,,,,,,,,,,,,,,FALSE,3,6,49,5,high,main_task,1,16,0,
html-keyboard-response,453,577417,0.0-453.0,9121,TRUE,null,<div class='exp'><p class='fix center'>+</p></div>,,,null,,,,,,,,,,,,,,,,,,,,,,,,,,,,,,,,,,,,
categorize-html,454,579428,0.0-454.0,9121,TRUE,1508,2,,,1,,,,,,,,,,,,,,,,,,,,,,,,,,FALSE,3,6,50,5,high,main_task,2,14,0,
html-keyboard-response,455,579931,0.0-455.0,9121,TRUE,null,<div class='exp'><p class='fix center'>+</p></div>,,,null,,,,,,,,,,,,,,,,,,,,,,,,,,,,,,,,,,,,
categorize-html,456,581397,0.0-456.0,9121,TRUE,963,5,,,2,,,,,,,,,,,,,,,,,,,,,,,,,,TRUE,3,6,51,5,high,main_task,2,14,1,
html-keyboard-response,457,581900,0.0-457.0,9121,TRUE,null,<div class='exp'><p class='fix center'>+</p></div>,,,null,,,,,,,,,,,,,,,,,,,,,,,,,,,,,,,,,,,,
categorize-html,458,582985,0.0-458.0,9121,TRUE,581,3,,,1,,,,,,,,,,,,,,,,,,,,,,,,,,TRUE,3,6,52,5,high,main_task,1,16,1,
html-keyboard-response,459,583487,0.0-459.0,9121,TRUE,null,<div class='exp'><p class='fix center'>+</p></div>,,,null,,,,,,,,,,,,,,,,,,,,,,,,,,,,,,,,,,,,
categorize-html,460,585540,0.0-460.0,9121,TRUE,1550,1,,,1,,,,,,,,,,,,,,,,,,,,,,,,,,FALSE,3,6,53,5,high,main_task,0,16,0,
html-keyboard-response,461,586043,0.0-461.0,9121,TRUE,null,<div class='exp'><p class='fix center'>+</p></div>,,,null,,,,,,,,,,,,,,,,,,,,,,,,,,,,,,,,,,,,
categorize-html,462,586811,0.0-462.0,9121,TRUE,265,2,,,0,,,,,,,,,,,,,,,,,,,,,,,,,,FALSE,3,6,54,5,high,main_task,2,14,0,
html-keyboard-response,463,587314,0.0-463.0,9121,TRUE,null,<div class='exp'><p class='fix center'>+</p></div>,,,null,,,,,,,,,,,,,,,,,,,,,,,,,,,,,,,,,,,,
categorize-html,464,588761,0.0-464.0,9121,TRUE,944,4,,,2,,,,,,,,,,,,,,,,,,,,,,,,,,FALSE,3,6,55,5,high,main_task,0,13,0,
html-keyboard-response,465,589264,0.0-465.0,9121,TRUE,null,<div class='exp'><p class='fix center'>+</p></div>,,,null,,,,,,,,,,,,,,,,,,,,,,,,,,,,,,,,,,,,
categorize-html,466,590128,0.0-466.0,9121,TRUE,361,4,,,2,,,,,,,,,,,,,,,,,,,,,,,,,,FALSE,3,6,56,5,high,main_task,0,13,0,
html-keyboard-response,467,590631,0.0-467.0,9121,TRUE,null,<div class='exp'><p class='fix center'>+</p></div>,,,null,,,,,,,,,,,,,,,,,,,,,,,,,,,,,,,,,,,,
categorize-html,468,591491,0.0-468.0,9121,TRUE,358,2,,,1,,,,,,,,,,,,,,,,,,,,,,,,,,FALSE,3,6,57,5,high,main_task,2,14,0,
html-keyboard-response,469,591993,0.0-469.0,9121,TRUE,null,<div class='exp'><p class='fix center'>+</p></div>,,,null,,,,,,,,,,,,,,,,,,,,,,,,,,,,,,,,,,,,
categorize-html,470,593325,0.0-470.0,9121,TRUE,829,3,,,0,,,,,,,,,,,,,,,,,,,,,,,,,,FALSE,3,6,58,5,high,main_task,1,16,0,
html-keyboard-response,471,593828,0.0-471.0,9121,TRUE,null,<div class='exp'><p class='fix center'>+</p></div>,,,null,,,,,,,,,,,,,,,,,,,,,,,,,,,,,,,,,,,,
categorize-html,472,594527,0.0-472.0,9121,TRUE,196,5,,,1,,,,,,,,,,,,,,,,,,,,,,,,,,FALSE,3,6,59,5,high,main_task,2,14,0,
html-keyboard-response,473,595030,0.0-473.0,9121,TRUE,null,<div class='exp'><p class='fix center'>+</p></div>,,,null,,,,,,,,,,,,,,,,,,,,,,,,,,,,,,,,,,,,
categorize-html,474,596364,0.0-474.0,9121,TRUE,830,1,,,0,,,,,,,,,,,,,,,,,,,,,,,,,,TRUE,3,6,60,5,high,main_task,0,16,1,
html-keyboard-response,475,596866,0.0-475.0,9121,TRUE,null,<div class='exp'><p class='fix center'>+</p></div>,,,null,,,,,,,,,,,,,,,,,,,,,,,,,,,,,,,,,,,,
categorize-html,476,597957,0.0-476.0,9121,TRUE,588,5,,,2,,,,,,,,,,,,,,,,,,,,,,,,,,TRUE,3,6,61,5,high,main_task,2,14,1,
html-keyboard-response,477,598460,0.0-477.0,9121,TRUE,null,<div class='exp'><p class='fix center'>+</p></div>,,,null,,,,,,,,,,,,,,,,,,,,,,,,,,,,,,,,,,,,
categorize-html,478,599559,0.0-478.0,9121,TRUE,595,3,,,1,,,,,,,,,,,,,,,,,,,,,,,,,,TRUE,3,6,62,5,high,main_task,1,16,1,
html-keyboard-response,479,600061,0.0-479.0,9121,TRUE,null,<div class='exp'><p class='fix center'>+</p></div>,,,null,,,,,,,,,,,,,,,,,,,,,,,,,,,,,,,,,,,,
categorize-html,480,601032,0.0-480.0,9121,TRUE,467,3,,,1,,,,,,,,,,,,,,,,,,,,,,,,,,TRUE,3,6,63,5,high,main_task,1,16,2,
html-keyboard-response,481,601534,0.0-481.0,9121,TRUE,null,<div class='exp'><p class='fix center'>+</p></div>,,,null,,,,,,,,,,,,,,,,,,,,,,,,,,,,,,,,,,,,
categorize-html,482,603128,0.0-482.0,9121,TRUE,1091,4,,,1,,,,,,,,,,,,,,,,,,,,,,,,,,FALSE,3,6,64,5,high,main_task,0,13,0,
html-keyboard-response,483,603631,0.0-483.0,9121,TRUE,null,<div class='exp'><p class='fix center'>+</p></div>,,,null,,,,,,,,,,,,,,,,,,,,,,,,,,,,,,,,,,,,
categorize-html,484,605740,0.0-484.0,9121,TRUE,1606,1,,,0,,,,,,,,,,,,,,,,,,,,,,,,,,TRUE,3,6,65,5,high,main_task,0,16,2,
html-keyboard-response,485,606242,0.0-485.0,9121,TRUE,null,<div class='exp'><p class='fix center'>+</p></div>,,,null,,,,,,,,,,,,,,,,,,,,,,,,,,,,,,,,,,,,
categorize-html,486,607444,0.0-486.0,9121,TRUE,697,2,,,0,,,,,,,,,,,,,,,,,,,,,,,,,,FALSE,3,6,66,5,high,main_task,2,14,0,
html-keyboard-response,487,607946,0.0-487.0,9121,TRUE,null,<div class='exp'><p class='fix center'>+</p></div>,,,null,,,,,,,,,,,,,,,,,,,,,,,,,,,,,,,,,,,,
categorize-html,488,608965,0.0-488.0,9121,TRUE,516,1,,,0,,,,,,,,,,,,,,,,,,,,,,,,,,TRUE,3,6,67,5,high,main_task,0,16,3,
html-keyboard-response,489,609468,0.0-489.0,9121,TRUE,null,<div class='exp'><p class='fix center'>+</p></div>,,,null,,,,,,,,,,,,,,,,,,,,,,,,,,,,,,,,,,,,
categorize-html,490,610619,0.0-490.0,9121,TRUE,648,4,,,0,,,,,,,,,,,,,,,,,,,,,,,,,,TRUE,3,6,68,5,high,main_task,0,13,1,
html-keyboard-response,491,611122,0.0-491.0,9121,TRUE,null,<div class='exp'><p class='fix center'>+</p></div>,,,null,,,,,,,,,,,,,,,,,,,,,,,,,,,,,,,,,,,,
categorize-html,492,612186,0.0-492.0,9121,TRUE,562,2,,,0,,,,,,,,,,,,,,,,,,,,,,,,,,FALSE,3,6,69,5,high,main_task,2,14,0,
html-keyboard-response,493,612688,0.0-493.0,9121,TRUE,null,<div class='exp'><p class='fix center'>+</p></div>,,,null,,,,,,,,,,,,,,,,,,,,,,,,,,,,,,,,,,,,
categorize-html,494,613727,0.0-494.0,9121,TRUE,537,5,,,2,,,,,,,,,,,,,,,,,,,,,,,,,,TRUE,3,6,70,5,high,main_task,2,14,2,
html-keyboard-response,495,614229,0.0-495.0,9121,TRUE,null,<div class='exp'><p class='fix center'>+</p></div>,,,null,,,,,,,,,,,,,,,,,,,,,,,,,,,,,,,,,,,,
categorize-html,496,615487,0.0-496.0,9121,TRUE,755,5,,,2,,,,,,,,,,,,,,,,,,,,,,,,,,TRUE,3,6,71,5,high,main_task,2,14,3,
html-keyboard-response,497,615988,0.0-497.0,9121,TRUE,null,<div class='exp'><p class='fix center'>+</p></div>,,,null,,,,,,,,,,,,,,,,,,,,,,,,,,,,,,,,,,,,
categorize-html,498,617200,0.0-498.0,9121,TRUE,709,3,,,1,,,,,,,,,,,,,,,,,,,,,,,,,,TRUE,3,6,72,5,high,main_task,1,16,3,
html-keyboard-response,499,617700,0.0-499.0,9121,TRUE,null,<div class='exp'><p class='fix center'>+</p></div>,,,null,,,,,,,,,,,,,,,,,,,,,,,,,,,,,,,,,,,,
categorize-html,500,618927,0.0-500.0,9121,TRUE,725,4,,,1,,,,,,,,,,,,,,,,,,,,,,,,,,FALSE,3,6,73,5,high,main_task,0,13,0,
html-keyboard-response,501,619430,0.0-501.0,9121,TRUE,null,<div class='exp'><p class='fix center'>+</p></div>,,,null,,,,,,,,,,,,,,,,,,,,,,,,,,,,,,,,,,,,
categorize-html,502,620574,0.0-502.0,9121,TRUE,641,1,,,0,,,,,,,,,,,,,,,,,,,,,,,,,,TRUE,3,6,74,5,high,main_task,0,16,4,
html-keyboard-response,503,621076,0.0-503.0,9121,TRUE,null,<div class='exp'><p class='fix center'>+</p></div>,,,null,,,,,,,,,,,,,,,,,,,,,,,,,,,,,,,,,,,,
categorize-html,504,622303,0.0-504.0,9121,TRUE,725,2,,,2,,,,,,,,,,,,,,,,,,,,,,,,,,TRUE,3,6,75,5,high,main_task,2,14,1,
html-keyboard-response,505,623327,0.0-505.0,9121,TRUE,1022,"<div class=""center""><p>End of block - you earned 29 points!</p>    <br><p>You have a 1 minute break before the next block begins, but you can press space to continue now.</p></div>",,,32,,,,,,,,,,,,,,,,,,,,,,,,,,,,,,,,,,,,
html-keyboard-response,506,627516,0.0-506.0,9121,TRUE,4186,"<div class='exp'><p>Block 5 of 21. <br><br> Take some time to identify the images below:</p><table class='center'><tr><td><img class=""disp"" src=""static/img/images14/image1.jpg""></td><td><img class=""disp"" src=""static/img/images14/image2.jpg""></td><td><img class=""disp"" src=""static/img/images14/image3.jpg""></td></tr><tr><td><img class=""disp"" src=""static/img/images14/image4.jpg""></td><td><img class=""disp"" src=""static/img/images14/image5.jpg""></td><td><img class=""disp"" src=""static/img/images14/image6.jpg""></td></tr></table></div><p class=""continue"">[Press SPACE to continue]</p>",,,32,,,,,,,,,,,,,,,,,,,,,,,,,,,,,,,,,,,,
html-keyboard-response,507,628018,0.0-507.0,9121,TRUE,null,<div class='exp'><p class='fix center'>+</p></div>,,,null,,,,,,,,,,,,,,,,,,,,,,,,,,,,,,,,,,,,
categorize-html,508,628873,0.0-508.0,9121,TRUE,351,1,,,0,,,,,,,,,,,,,,,,,,,,,,,,,,FALSE,14,7,1,6,high,main_task,2,18,0,
html-keyboard-response,509,629376,0.0-509.0,9121,TRUE,null,<div class='exp'><p class='fix center'>+</p></div>,,,null,,,,,,,,,,,,,,,,,,,,,,,,,,,,,,,,,,,,
categorize-html,510,630328,0.0-510.0,9121,TRUE,448,2,,,0,,,,,,,,,,,,,,,,,,,,,,,,,,FALSE,14,7,2,6,high,main_task,2,17,0,
html-keyboard-response,511,630831,0.0-511.0,9121,TRUE,null,<div class='exp'><p class='fix center'>+</p></div>,,,null,,,,,,,,,,,,,,,,,,,,,,,,,,,,,,,,,,,,
categorize-html,512,631838,0.0-512.0,9121,TRUE,503,3,,,0,,,,,,,,,,,,,,,,,,,,,,,,,,FALSE,14,7,3,6,high,main_task,2,14,0,
html-keyboard-response,513,632341,0.0-513.0,9121,TRUE,null,<div class='exp'><p class='fix center'>+</p></div>,,,null,,,,,,,,,,,,,,,,,,,,,,,,,,,,,,,,,,,,
categorize-html,514,633279,0.0-514.0,9121,TRUE,435,4,,,0,,,,,,,,,,,,,,,,,,,,,,,,,,TRUE,14,7,4,6,high,main_task,0,13,1,
html-keyboard-response,515,633782,0.0-515.0,9121,TRUE,null,<div class='exp'><p class='fix center'>+</p></div>,,,null,,,,,,,,,,,,,,,,,,,,,,,,,,,,,,,,,,,,
categorize-html,516,634882,0.0-516.0,9121,TRUE,597,5,,,0,,,,,,,,,,,,,,,,,,,,,,,,,,FALSE,14,7,5,6,high,main_task,2,18,0,
html-keyboard-response,517,635385,0.0-517.0,9121,TRUE,null,<div class='exp'><p class='fix center'>+</p></div>,,,null,,,,,,,,,,,,,,,,,,,,,,,,,,,,,,,,,,,,
categorize-html,518,636438,0.0-518.0,9121,TRUE,549,6,,,0,,,,,,,,,,,,,,,,,,,,,,,,,,TRUE,14,7,6,6,high,main_task,0,15,1,
html-keyboard-response,519,636940,0.0-519.0,9121,TRUE,null,<div class='exp'><p class='fix center'>+</p></div>,,,null,,,,,,,,,,,,,,,,,,,,,,,,,,,,,,,,,,,,
categorize-html,520,637934,0.0-520.0,9121,TRUE,491,6,,,0,,,,,,,,,,,,,,,,,,,,,,,,,,TRUE,14,7,7,6,high,main_task,0,15,2,
html-keyboard-response,521,638437,0.0-521.0,9121,TRUE,null,<div class='exp'><p class='fix center'>+</p></div>,,,null,,,,,,,,,,,,,,,,,,,,,,,,,,,,,,,,,,,,
categorize-html,522,639607,0.0-522.0,9121,TRUE,667,3,,,1,,,,,,,,,,,,,,,,,,,,,,,,,,FALSE,14,7,8,6,high,main_task,2,14,0,
html-keyboard-response,523,640109,0.0-523.0,9121,TRUE,null,<div class='exp'><p class='fix center'>+</p></div>,,,null,,,,,,,,,,,,,,,,,,,,,,,,,,,,,,,,,,,,
categorize-html,524,641251,0.0-524.0,9121,TRUE,639,1,,,0,,,,,,,,,,,,,,,,,,,,,,,,,,FALSE,14,7,9,6,high,main_task,2,18,0,
html-keyboard-response,525,641753,0.0-525.0,9121,TRUE,null,<div class='exp'><p class='fix center'>+</p></div>,,,null,,,,,,,,,,,,,,,,,,,,,,,,,,,,,,,,,,,,
categorize-html,526,643736,0.0-526.0,9121,TRUE,1479,4,,,0,,,,,,,,,,,,,,,,,,,,,,,,,,TRUE,14,7,10,6,high,main_task,0,13,2,
html-keyboard-response,527,644239,0.0-527.0,9121,TRUE,null,<div class='exp'><p class='fix center'>+</p></div>,,,null,,,,,,,,,,,,,,,,,,,,,,,,,,,,,,,,,,,,
categorize-html,528,645297,0.0-528.0,9121,TRUE,554,2,,,0,,,,,,,,,,,,,,,,,,,,,,,,,,FALSE,14,7,11,6,high,main_task,2,17,0,
html-keyboard-response,529,645799,0.0-529.0,9121,TRUE,null,<div class='exp'><p class='fix center'>+</p></div>,,,null,,,,,,,,,,,,,,,,,,,,,,,,,,,,,,,,,,,,
categorize-html,530,646975,0.0-530.0,9121,TRUE,673,5,,,0,,,,,,,,,,,,,,,,,,,,,,,,,,FALSE,14,7,12,6,high,main_task,2,18,0,
html-keyboard-response,531,647477,0.0-531.0,9121,TRUE,null,<div class='exp'><p class='fix center'>+</p></div>,,,null,,,,,,,,,,,,,,,,,,,,,,,,,,,,,,,,,,,,
categorize-html,532,648807,0.0-532.0,9121,TRUE,826,4,,,0,,,,,,,,,,,,,,,,,,,,,,,,,,TRUE,14,7,13,6,high,main_task,0,13,3,
html-keyboard-response,533,649310,0.0-533.0,9121,TRUE,null,<div class='exp'><p class='fix center'>+</p></div>,,,null,,,,,,,,,,,,,,,,,,,,,,,,,,,,,,,,,,,,
categorize-html,534,650559,0.0-534.0,9121,TRUE,746,5,,,1,,,,,,,,,,,,,,,,,,,,,,,,,,FALSE,14,7,14,6,high,main_task,2,18,0,
html-keyboard-response,535,651061,0.0-535.0,9121,TRUE,null,<div class='exp'><p class='fix center'>+</p></div>,,,null,,,,,,,,,,,,,,,,,,,,,,,,,,,,,,,,,,,,
categorize-html,536,652423,0.0-536.0,9121,TRUE,859,2,,,0,,,,,,,,,,,,,,,,,,,,,,,,,,FALSE,14,7,15,6,high,main_task,2,17,0,
html-keyboard-response,537,652926,0.0-537.0,9121,TRUE,null,<div class='exp'><p class='fix center'>+</p></div>,,,null,,,,,,,,,,,,,,,,,,,,,,,,,,,,,,,,,,,,
categorize-html,538,654284,0.0-538.0,9121,TRUE,854,3,,,1,,,,,,,,,,,,,,,,,,,,,,,,,,FALSE,14,7,16,6,high,main_task,2,14,0,
html-keyboard-response,539,654787,0.0-539.0,9121,TRUE,null,<div class='exp'><p class='fix center'>+</p></div>,,,null,,,,,,,,,,,,,,,,,,,,,,,,,,,,,,,,,,,,
categorize-html,540,655936,0.0-540.0,9121,TRUE,646,6,,,0,,,,,,,,,,,,,,,,,,,,,,,,,,TRUE,14,7,17,6,high,main_task,0,15,3,
html-keyboard-response,541,656438,0.0-541.0,9121,TRUE,null,<div class='exp'><p class='fix center'>+</p></div>,,,null,,,,,,,,,,,,,,,,,,,,,,,,,,,,,,,,,,,,
categorize-html,542,657729,0.0-542.0,9121,TRUE,787,1,,,1,,,,,,,,,,,,,,,,,,,,,,,,,,FALSE,14,7,18,6,high,main_task,2,18,0,
html-keyboard-response,543,658232,0.0-543.0,9121,TRUE,null,<div class='exp'><p class='fix center'>+</p></div>,,,null,,,,,,,,,,,,,,,,,,,,,,,,,,,,,,,,,,,,
categorize-html,544,659486,0.0-544.0,9121,TRUE,751,5,,,1,,,,,,,,,,,,,,,,,,,,,,,,,,FALSE,14,7,19,6,high,main_task,2,18,0,
html-keyboard-response,545,659989,0.0-545.0,9121,TRUE,null,<div class='exp'><p class='fix center'>+</p></div>,,,null,,,,,,,,,,,,,,,,,,,,,,,,,,,,,,,,,,,,
categorize-html,546,660971,0.0-546.0,9121,TRUE,479,1,,,2,,,,,,,,,,,,,,,,,,,,,,,,,,TRUE,14,7,20,6,high,main_task,2,18,1,
html-keyboard-response,547,661474,0.0-547.0,9121,TRUE,null,<div class='exp'><p class='fix center'>+</p></div>,,,null,,,,,,,,,,,,,,,,,,,,,,,,,,,,,,,,,,,,
categorize-html,548,662648,0.0-548.0,9121,TRUE,671,2,,,2,,,,,,,,,,,,,,,,,,,,,,,,,,TRUE,14,7,21,6,high,main_task,2,17,1,
html-keyboard-response,549,663150,0.0-549.0,9121,TRUE,null,<div class='exp'><p class='fix center'>+</p></div>,,,null,,,,,,,,,,,,,,,,,,,,,,,,,,,,,,,,,,,,
categorize-html,550,664250,0.0-550.0,9121,TRUE,597,6,,,0,,,,,,,,,,,,,,,,,,,,,,,,,,TRUE,14,7,22,6,high,main_task,0,15,4,
html-keyboard-response,551,664753,0.0-551.0,9121,TRUE,null,<div class='exp'><p class='fix center'>+</p></div>,,,null,,,,,,,,,,,,,,,,,,,,,,,,,,,,,,,,,,,,
categorize-html,552,665756,0.0-552.0,9121,TRUE,500,4,,,0,,,,,,,,,,,,,,,,,,,,,,,,,,TRUE,14,7,23,6,high,main_task,0,13,4,
html-keyboard-response,553,666259,0.0-553.0,9121,TRUE,null,<div class='exp'><p class='fix center'>+</p></div>,,,null,,,,,,,,,,,,,,,,,,,,,,,,,,,,,,,,,,,,
categorize-html,554,667181,0.0-554.0,9121,TRUE,420,2,,,2,,,,,,,,,,,,,,,,,,,,,,,,,,TRUE,14,7,24,6,high,main_task,2,17,2,
html-keyboard-response,555,667684,0.0-555.0,9121,TRUE,null,<div class='exp'><p class='fix center'>+</p></div>,,,null,,,,,,,,,,,,,,,,,,,,,,,,,,,,,,,,,,,,
categorize-html,556,668654,0.0-556.0,9121,TRUE,466,3,,,2,,,,,,,,,,,,,,,,,,,,,,,,,,TRUE,14,7,25,6,high,main_task,2,14,1,
html-keyboard-response,557,669156,0.0-557.0,9121,TRUE,null,<div class='exp'><p class='fix center'>+</p></div>,,,null,,,,,,,,,,,,,,,,,,,,,,,,,,,,,,,,,,,,
categorize-html,558,670158,0.0-558.0,9121,TRUE,498,5,,,2,,,,,,,,,,,,,,,,,,,,,,,,,,TRUE,14,7,26,6,high,main_task,2,18,1,
html-keyboard-response,559,670659,0.0-559.0,9121,TRUE,null,<div class='exp'><p class='fix center'>+</p></div>,,,null,,,,,,,,,,,,,,,,,,,,,,,,,,,,,,,,,,,,
categorize-html,560,671730,0.0-560.0,9121,TRUE,567,4,,,2,,,,,,,,,,,,,,,,,,,,,,,,,,FALSE,14,7,27,6,high,main_task,0,13,0,
html-keyboard-response,561,672232,0.0-561.0,9121,TRUE,null,<div class='exp'><p class='fix center'>+</p></div>,,,null,,,,,,,,,,,,,,,,,,,,,,,,,,,,,,,,,,,,
categorize-html,562,673297,0.0-562.0,9121,TRUE,562,3,,,2,,,,,,,,,,,,,,,,,,,,,,,,,,TRUE,14,7,28,6,high,main_task,2,14,2,
html-keyboard-response,563,673800,0.0-563.0,9121,TRUE,null,<div class='exp'><p class='fix center'>+</p></div>,,,null,,,,,,,,,,,,,,,,,,,,,,,,,,,,,,,,,,,,
categorize-html,564,674703,0.0-564.0,9121,TRUE,400,6,,,0,,,,,,,,,,,,,,,,,,,,,,,,,,TRUE,14,7,29,6,high,main_task,0,15,5,
html-keyboard-response,565,675205,0.0-565.0,9121,TRUE,null,<div class='exp'><p class='fix center'>+</p></div>,,,null,,,,,,,,,,,,,,,,,,,,,,,,,,,,,,,,,,,,
categorize-html,566,676274,0.0-566.0,9121,TRUE,565,6,,,0,,,,,,,,,,,,,,,,,,,,,,,,,,TRUE,14,7,30,6,high,main_task,0,15,6,
html-keyboard-response,567,676777,0.0-567.0,9121,TRUE,null,<div class='exp'><p class='fix center'>+</p></div>,,,null,,,,,,,,,,,,,,,,,,,,,,,,,,,,,,,,,,,,
categorize-html,568,677872,0.0-568.0,9121,TRUE,593,1,,,2,,,,,,,,,,,,,,,,,,,,,,,,,,TRUE,14,7,31,6,high,main_task,2,18,2,
html-keyboard-response,569,678375,0.0-569.0,9121,TRUE,null,<div class='exp'><p class='fix center'>+</p></div>,,,null,,,,,,,,,,,,,,,,,,,,,,,,,,,,,,,,,,,,
categorize-html,570,679436,0.0-570.0,9121,TRUE,557,5,,,2,,,,,,,,,,,,,,,,,,,,,,,,,,TRUE,14,7,32,6,high,main_task,2,18,2,
html-keyboard-response,571,679939,0.0-571.0,9121,TRUE,null,<div class='exp'><p class='fix center'>+</p></div>,,,null,,,,,,,,,,,,,,,,,,,,,,,,,,,,,,,,,,,,
categorize-html,572,681026,0.0-572.0,9121,TRUE,582,1,,,2,,,,,,,,,,,,,,,,,,,,,,,,,,TRUE,14,7,33,6,high,main_task,2,18,3,
html-keyboard-response,573,681528,0.0-573.0,9121,TRUE,null,<div class='exp'><p class='fix center'>+</p></div>,,,null,,,,,,,,,,,,,,,,,,,,,,,,,,,,,,,,,,,,
categorize-html,574,682659,0.0-574.0,9121,TRUE,627,2,,,2,,,,,,,,,,,,,,,,,,,,,,,,,,TRUE,14,7,34,6,high,main_task,2,17,3,
html-keyboard-response,575,683162,0.0-575.0,9121,TRUE,null,<div class='exp'><p class='fix center'>+</p></div>,,,null,,,,,,,,,,,,,,,,,,,,,,,,,,,,,,,,,,,,
categorize-html,576,684075,0.0-576.0,9121,TRUE,410,4,,,0,,,,,,,,,,,,,,,,,,,,,,,,,,TRUE,14,7,35,6,high,main_task,0,13,1,
html-keyboard-response,577,684577,0.0-577.0,9121,TRUE,null,<div class='exp'><p class='fix center'>+</p></div>,,,null,,,,,,,,,,,,,,,,,,,,,,,,,,,,,,,,,,,,
categorize-html,578,685602,0.0-578.0,9121,TRUE,521,3,,,2,,,,,,,,,,,,,,,,,,,,,,,,,,TRUE,14,7,36,6,high,main_task,2,14,3,
html-keyboard-response,579,686104,0.0-579.0,9121,TRUE,null,<div class='exp'><p class='fix center'>+</p></div>,,,null,,,,,,,,,,,,,,,,,,,,,,,,,,,,,,,,,,,,
categorize-html,580,687299,0.0-580.0,9121,TRUE,692,3,,,0,,,,,,,,,,,,,,,,,,,,,,,,,,FALSE,14,7,37,6,high,main_task,2,14,0,
html-keyboard-response,581,687802,0.0-581.0,9121,TRUE,null,<div class='exp'><p class='fix center'>+</p></div>,,,null,,,,,,,,,,,,,,,,,,,,,,,,,,,,,,,,,,,,
categorize-html,582,688955,0.0-582.0,9121,TRUE,650,2,,,2,,,,,,,,,,,,,,,,,,,,,,,,,,TRUE,14,7,38,6,high,main_task,2,17,4,
