sona_id,trial_index,time_elapsed,rt,stimulus,key_press,correct,set,block,trial,set_size,load_condition,phase_type,key_answer,reversal_crit,counter
9121,202,318775,548.0,1,0.0,1.0,18.0,3.0,1.0,2.0,low,main_task,0.0,13.0,1.0
9121,204,320143,361.0,2,1.0,1.0,18.0,3.0,2.0,2.0,low,main_task,1.0,17.0,1.0
9121,206,321652,502.0,1,0.0,1.0,18.0,3.0,3.0,2.0,low,main_task,0.0,13.0,2.0
9121,208,323504,847.0,1,0.0,1.0,18.0,3.0,4.0,2.0,low,main_task,0.0,13.0,3.0
9121,210,325198,688.0,2,1.0,1.0,18.0,3.0,5.0,2.0,low,main_task,1.0,17.0,2.0
9121,212,326808,605.0,2,1.0,1.0,18.0,3.0,6.0,2.0,low,main_task,1.0,17.0,3.0
9121,214,328316,503.0,1,0.0,1.0,18.0,3.0,7.0,2.0,low,main_task,0.0,13.0,4.0
9121,216,329997,675.0,2,1.0,1.0,18.0,3.0,8.0,2.0,low,main_task,1.0,17.0,4.0
9121,218,331457,455.0,2,1.0,1.0,18.0,3.0,9.0,2.0,low,main_task,1.0,17.0,5.0
9121,220,332948,484.0,1,0.0,1.0,18.0,3.0,10.0,2.0,low,main_task,0.0,13.0,5.0
9121,222,334505,552.0,2,1.0,1.0,18.0,3.0,11.0,2.0,low,main_task,1.0,17.0,6.0
9121,224,336022,512.0,1,0.0,1.0,18.0,3.0,12.0,2.0,low,main_task,0.0,13.0,6.0
9121,226,337652,625.0,1,0.0,1.0,18.0,3.0,13.0,2.0,low,main_task,0.0,13.0,7.0
9121,228,339084,427.0,2,1.0,1.0,18.0,3.0,14.0,2.0,low,main_task,1.0,17.0,7.0
9121,230,340777,688.0,2,1.0,1.0,18.0,3.0,15.0,2.0,low,main_task,1.0,17.0,8.0
9121,232,342267,484.0,1,0.0,1.0,18.0,3.0,16.0,2.0,low,main_task,0.0,13.0,8.0
9121,234,343790,518.0,2,1.0,1.0,18.0,3.0,17.0,2.0,low,main_task,1.0,17.0,9.0
9121,236,345329,532.0,1,0.0,1.0,18.0,3.0,18.0,2.0,low,main_task,0.0,13.0,9.0
9121,238,347067,731.0,1,0.0,1.0,18.0,3.0,19.0,2.0,low,main_task,0.0,13.0,10.0
9121,240,348629,557.0,2,1.0,1.0,18.0,3.0,20.0,2.0,low,main_task,1.0,17.0,10.0
9121,242,350134,499.0,1,0.0,1.0,18.0,3.0,21.0,2.0,low,main_task,0.0,13.0,11.0
9121,244,352954,1814.0,1,0.0,1.0,18.0,3.0,22.0,2.0,low,main_task,0.0,13.0,12.0
9121,246,354715,757.0,2,1.0,1.0,18.0,3.0,23.0,2.0,low,main_task,1.0,17.0,11.0
9121,248,356390,669.0,2,1.0,1.0,18.0,3.0,24.0,2.0,low,main_task,1.0,17.0,12.0
9121,250,358183,786.0,1,0.0,1.0,18.0,3.0,25.0,2.0,low,main_task,0.0,13.0,13.0
9121,252,359393,203.0,2,1.0,1.0,18.0,3.0,26.0,2.0,low,main_task,1.0,17.0,13.0
9121,254,360592,195.0,1,1.0,0.0,18.0,3.0,27.0,2.0,low,main_task,2.0,inf,0.0
9121,256,362097,499.0,2,0.0,0.0,18.0,3.0,28.0,2.0,low,main_task,1.0,17.0,0.0
9121,258,364670,1568.0,2,1.0,1.0,18.0,3.0,29.0,2.0,low,main_task,1.0,17.0,1.0
9121,260,366053,377.0,1,0.0,0.0,18.0,3.0,30.0,2.0,low,main_task,2.0,inf,0.0
9121,264,372658,838.0,1,0.0,0.0,9.0,5.0,1.0,3.0,low,main_task,1.0,12.0,0.0
9121,266,374077,412.0,2,0.0,1.0,9.0,5.0,2.0,3.0,low,main_task,0.0,15.0,1.0
9121,268,375665,583.0,3,0.0,0.0,9.0,5.0,3.0,3.0,low,main_task,1.0,18.0,0.0
9121,270,377423,752.0,3,1.0,1.0,9.0,5.0,4.0,3.0,low,main_task,1.0,18.0,1.0
9121,272,379270,842.0,1,0.0,0.0,9.0,5.0,5.0,3.0,low,main_task,1.0,12.0,0.0
9121,274,380734,459.0,2,0.0,1.0,9.0,5.0,6.0,3.0,low,main_task,0.0,15.0,2.0
9121,276,382166,426.0,3,1.0,1.0,9.0,5.0,7.0,3.0,low,main_task,1.0,18.0,2.0
9121,278,383659,487.0,2,2.0,0.0,9.0,5.0,8.0,3.0,low,main_task,0.0,15.0,0.0
9121,280,385080,415.0,2,1.0,0.0,9.0,5.0,9.0,3.0,low,main_task,0.0,15.0,0.0
9121,282,386782,697.0,1,1.0,1.0,9.0,5.0,10.0,3.0,low,main_task,1.0,12.0,1.0
9121,284,388426,639.0,2,0.0,1.0,9.0,5.0,11.0,3.0,low,main_task,0.0,15.0,1.0
9121,286,390031,600.0,3,1.0,1.0,9.0,5.0,12.0,3.0,low,main_task,1.0,18.0,3.0
9121,288,391555,518.0,1,1.0,1.0,9.0,5.0,13.0,3.0,low,main_task,1.0,12.0,2.0
9121,290,392968,406.0,3,0.0,0.0,9.0,5.0,14.0,3.0,low,main_task,1.0,18.0,0.0
9121,292,394619,645.0,1,1.0,1.0,9.0,5.0,15.0,3.0,low,main_task,1.0,12.0,3.0
9121,294,396169,544.0,2,0.0,1.0,9.0,5.0,16.0,3.0,low,main_task,0.0,15.0,2.0
9121,296,397773,598.0,3,1.0,1.0,9.0,5.0,17.0,3.0,low,main_task,1.0,18.0,1.0
9121,298,399800,1021.0,3,1.0,1.0,9.0,5.0,18.0,3.0,low,main_task,1.0,18.0,2.0
9121,300,401563,757.0,1,1.0,1.0,9.0,5.0,19.0,3.0,low,main_task,1.0,12.0,4.0
9121,302,403226,657.0,1,1.0,1.0,9.0,5.0,20.0,3.0,low,main_task,1.0,12.0,5.0
9121,304,404934,702.0,2,1.0,0.0,9.0,5.0,21.0,3.0,low,main_task,0.0,15.0,0.0
9121,306,406559,619.0,3,1.0,1.0,9.0,5.0,22.0,3.0,low,main_task,1.0,18.0,3.0
9121,308,408084,519.0,1,1.0,1.0,9.0,5.0,23.0,3.0,low,main_task,1.0,12.0,6.0
9121,310,409476,386.0,2,0.0,1.0,9.0,5.0,24.0,3.0,low,main_task,0.0,15.0,1.0
9121,312,411232,751.0,2,0.0,1.0,9.0,5.0,25.0,3.0,low,main_task,0.0,15.0,2.0
9121,314,412657,418.0,3,1.0,1.0,9.0,5.0,26.0,3.0,low,main_task,1.0,18.0,4.0
9121,316,414644,982.0,1,1.0,1.0,9.0,5.0,27.0,3.0,low,main_task,1.0,12.0,7.0
9121,318,416101,452.0,3,1.0,1.0,9.0,5.0,28.0,3.0,low,main_task,1.0,18.0,5.0
9121,320,417641,535.0,1,1.0,1.0,9.0,5.0,29.0,3.0,low,main_task,1.0,12.0,8.0
9121,322,419172,528.0,2,0.0,1.0,9.0,5.0,30.0,3.0,low,main_task,0.0,15.0,3.0
9121,324,421366,1188.0,3,1.0,1.0,9.0,5.0,31.0,3.0,low,main_task,1.0,18.0,6.0
9121,326,422884,513.0,3,1.0,1.0,9.0,5.0,32.0,3.0,low,main_task,1.0,18.0,7.0
9121,328,424690,799.0,2,0.0,1.0,9.0,5.0,33.0,3.0,low,main_task,0.0,15.0,4.0
9121,330,426421,725.0,1,1.0,1.0,9.0,5.0,34.0,3.0,low,main_task,1.0,12.0,9.0
9121,332,428071,644.0,1,1.0,1.0,9.0,5.0,35.0,3.0,low,main_task,1.0,12.0,10.0
9121,334,429789,713.0,2,0.0,1.0,9.0,5.0,36.0,3.0,low,main_task,0.0,15.0,5.0
9121,336,431493,698.0,3,1.0,1.0,9.0,5.0,37.0,3.0,low,main_task,1.0,18.0,8.0
9121,338,433280,782.0,2,0.0,1.0,9.0,5.0,38.0,3.0,low,main_task,0.0,15.0,6.0
9121,340,435015,730.0,1,1.0,1.0,9.0,5.0,39.0,3.0,low,main_task,1.0,12.0,11.0
9121,342,437560,1539.0,1,1.0,1.0,9.0,5.0,40.0,3.0,low,main_task,1.0,12.0,12.0
9121,344,439074,508.0,3,1.0,1.0,9.0,5.0,41.0,3.0,low,main_task,1.0,18.0,9.0
9121,346,440584,503.0,2,1.0,0.0,9.0,5.0,42.0,3.0,low,main_task,0.0,15.0,0.0
9121,348,442127,538.0,3,1.0,1.0,9.0,5.0,43.0,3.0,low,main_task,1.0,18.0,10.0
9121,350,443772,639.0,2,1.0,0.0,9.0,5.0,44.0,3.0,low,main_task,0.0,15.0,0.0
9121,352,445320,542.0,1,1.0,0.0,9.0,5.0,45.0,3.0,low,main_task,0.0,inf,0.0
9121,356,492921,320.0,1,0.0,1.0,3.0,6.0,1.0,5.0,high,main_task,0.0,16.0,1.0
9121,358,494231,304.0,2,0.0,0.0,3.0,6.0,2.0,5.0,high,main_task,2.0,14.0,0.0
9121,360,495654,417.0,3,0.0,0.0,3.0,6.0,3.0,5.0,high,main_task,1.0,16.0,0.0
9121,362,497105,445.0,4,0.0,1.0,3.0,6.0,4.0,5.0,high,main_task,0.0,13.0,1.0
9121,364,498597,486.0,5,0.0,0.0,3.0,6.0,5.0,5.0,high,main_task,2.0,14.0,0.0
9121,366,500134,531.0,5,0.0,0.0,3.0,6.0,6.0,5.0,high,main_task,2.0,14.0,0.0
9121,368,501647,507.0,1,0.0,1.0,3.0,6.0,7.0,5.0,high,main_task,0.0,16.0,2.0
9121,370,503287,635.0,4,0.0,1.0,3.0,6.0,8.0,5.0,high,main_task,0.0,13.0,2.0
9121,372,504874,582.0,2,1.0,0.0,3.0,6.0,9.0,5.0,high,main_task,2.0,14.0,0.0
9121,374,506503,623.0,3,1.0,1.0,3.0,6.0,10.0,5.0,high,main_task,1.0,16.0,1.0
9121,376,508488,978.0,2,1.0,0.0,3.0,6.0,11.0,5.0,high,main_task,2.0,14.0,0.0
9121,378,510252,758.0,1,0.0,1.0,3.0,6.0,12.0,5.0,high,main_task,0.0,16.0,3.0
9121,380,511791,532.0,3,0.0,0.0,3.0,6.0,13.0,5.0,high,main_task,1.0,16.0,0.0
9121,382,513588,793.0,5,1.0,0.0,3.0,6.0,14.0,5.0,high,main_task,2.0,14.0,0.0
9121,384,514995,397.0,3,2.0,0.0,3.0,6.0,15.0,5.0,high,main_task,1.0,16.0,0.0
9121,386,516562,561.0,4,0.0,1.0,3.0,6.0,16.0,5.0,high,main_task,0.0,13.0,3.0
9121,388,518704,1136.0,5,0.0,0.0,3.0,6.0,17.0,5.0,high,main_task,2.0,14.0,0.0
9121,390,521711,,1,-1.0,0.0,3.0,6.0,18.0,5.0,high,main_task,0.0,16.0,0.0
9121,392,523063,346.0,3,0.0,0.0,3.0,6.0,19.0,5.0,high,main_task,1.0,16.0,0.0
9121,394,524595,526.0,2,1.0,0.0,3.0,6.0,20.0,5.0,high,main_task,2.0,14.0,0.0
9121,396,526147,547.0,4,1.0,0.0,3.0,6.0,21.0,5.0,high,main_task,0.0,13.0,0.0
9121,398,527681,528.0,4,0.0,1.0,3.0,6.0,22.0,5.0,high,main_task,0.0,13.0,1.0
9121,400,529583,897.0,5,0.0,0.0,3.0,6.0,23.0,5.0,high,main_task,2.0,14.0,0.0
9121,402,531224,634.0,2,1.0,0.0,3.0,6.0,24.0,5.0,high,main_task,2.0,14.0,0.0
9121,404,533137,907.0,1,2.0,0.0,3.0,6.0,25.0,5.0,high,main_task,0.0,16.0,0.0
9121,406,535008,866.0,1,0.0,1.0,3.0,6.0,26.0,5.0,high,main_task,0.0,16.0,1.0
9121,408,537254,1240.0,3,1.0,1.0,3.0,6.0,27.0,5.0,high,main_task,1.0,16.0,1.0
9121,410,538977,717.0,5,1.0,0.0,3.0,6.0,28.0,5.0,high,main_task,2.0,14.0,0.0
9121,412,540607,624.0,4,0.0,1.0,3.0,6.0,29.0,5.0,high,main_task,0.0,13.0,2.0
9121,414,542753,1140.0,2,1.0,0.0,3.0,6.0,30.0,5.0,high,main_task,2.0,14.0,0.0
9121,416,544502,743.0,5,1.0,0.0,3.0,6.0,31.0,5.0,high,main_task,2.0,14.0,0.0
9121,418,546742,1233.0,2,0.0,0.0,3.0,6.0,32.0,5.0,high,main_task,2.0,14.0,0.0
9121,420,548351,603.0,4,1.0,0.0,3.0,6.0,33.0,5.0,high,main_task,0.0,13.0,0.0
9121,422,549914,557.0,1,2.0,0.0,3.0,6.0,34.0,5.0,high,main_task,0.0,16.0,0.0
9121,424,552382,1462.0,4,1.0,0.0,3.0,6.0,35.0,5.0,high,main_task,0.0,13.0,0.0
9121,426,554260,872.0,3,1.0,1.0,3.0,6.0,36.0,5.0,high,main_task,1.0,16.0,2.0
9121,428,556804,1538.0,3,1.0,1.0,3.0,6.0,37.0,5.0,high,main_task,1.0,16.0,3.0
9121,430,558504,695.0,5,1.0,0.0,3.0,6.0,38.0,5.0,high,main_task,2.0,14.0,0.0
9121,432,560159,650.0,1,0.0,1.0,3.0,6.0,39.0,5.0,high,main_task,0.0,16.0,1.0
9121,434,563166,,3,-1.0,0.0,3.0,6.0,40.0,5.0,high,main_task,1.0,16.0,0.0
9121,436,564625,452.0,2,1.0,0.0,3.0,6.0,41.0,5.0,high,main_task,2.0,14.0,0.0
9121,438,567632,,2,-1.0,0.0,3.0,6.0,42.0,5.0,high,main_task,2.0,14.0,0.0
9121,440,568748,110.0,5,0.0,0.0,3.0,6.0,43.0,5.0,high,main_task,2.0,14.0,0.0
9121,442,570017,263.0,4,1.0,0.0,3.0,6.0,44.0,5.0,high,main_task,0.0,13.0,0.0
9121,444,571149,126.0,1,2.0,0.0,3.0,6.0,45.0,5.0,high,main_task,0.0,16.0,0.0
9121,446,572363,208.0,5,1.0,0.0,3.0,6.0,46.0,5.0,high,main_task,2.0,14.0,0.0
9121,448,573709,340.0,1,0.0,1.0,3.0,6.0,47.0,5.0,high,main_task,0.0,16.0,1.0
9121,450,575219,504.0,4,1.0,0.0,3.0,6.0,48.0,5.0,high,main_task,0.0,13.0,0.0
9121,452,576914,690.0,3,0.0,0.0,3.0,6.0,49.0,5.0,high,main_task,1.0,16.0,0.0
9121,454,579428,1508.0,2,1.0,0.0,3.0,6.0,50.0,5.0,high,main_task,2.0,14.0,0.0
9121,456,581397,963.0,5,2.0,1.0,3.0,6.0,51.0,5.0,high,main_task,2.0,14.0,1.0
9121,458,582985,581.0,3,1.0,1.0,3.0,6.0,52.0,5.0,high,main_task,1.0,16.0,1.0
9121,460,585540,1550.0,1,1.0,0.0,3.0,6.0,53.0,5.0,high,main_task,0.0,16.0,0.0
9121,462,586811,265.0,2,0.0,0.0,3.0,6.0,54.0,5.0,high,main_task,2.0,14.0,0.0
9121,464,588761,944.0,4,2.0,0.0,3.0,6.0,55.0,5.0,high,main_task,0.0,13.0,0.0
9121,466,590128,361.0,4,2.0,0.0,3.0,6.0,56.0,5.0,high,main_task,0.0,13.0,0.0
9121,468,591491,358.0,2,1.0,0.0,3.0,6.0,57.0,5.0,high,main_task,2.0,14.0,0.0
9121,470,593325,829.0,3,0.0,0.0,3.0,6.0,58.0,5.0,high,main_task,1.0,16.0,0.0
9121,472,594527,196.0,5,1.0,0.0,3.0,6.0,59.0,5.0,high,main_task,2.0,14.0,0.0
9121,474,596364,830.0,1,0.0,1.0,3.0,6.0,60.0,5.0,high,main_task,0.0,16.0,1.0
9121,476,597957,588.0,5,2.0,1.0,3.0,6.0,61.0,5.0,high,main_task,2.0,14.0,1.0
9121,478,599559,595.0,3,1.0,1.0,3.0,6.0,62.0,5.0,high,main_task,1.0,16.0,1.0
9121,480,601032,467.0,3,1.0,1.0,3.0,6.0,63.0,5.0,high,main_task,1.0,16.0,2.0
9121,482,603128,1091.0,4,1.0,0.0,3.0,6.0,64.0,5.0,high,main_task,0.0,13.0,0.0
9121,484,605740,1606.0,1,0.0,1.0,3.0,6.0,65.0,5.0,high,main_task,0.0,16.0,2.0
9121,486,607444,697.0,2,0.0,0.0,3.0,6.0,66.0,5.0,high,main_task,2.0,14.0,0.0
9121,488,608965,516.0,1,0.0,1.0,3.0,6.0,67.0,5.0,high,main_task,0.0,16.0,3.0
9121,490,610619,648.0,4,0.0,1.0,3.0,6.0,68.0,5.0,high,main_task,0.0,13.0,1.0
9121,492,612186,562.0,2,0.0,0.0,3.0,6.0,69.0,5.0,high,main_task,2.0,14.0,0.0
9121,494,613727,537.0,5,2.0,1.0,3.0,6.0,70.0,5.0,high,main_task,2.0,14.0,2.0
9121,496,615487,755.0,5,2.0,1.0,3.0,6.0,71.0,5.0,high,main_task,2.0,14.0,3.0
9121,498,617200,709.0,3,1.0,1.0,3.0,6.0,72.0,5.0,high,main_task,1.0,16.0,3.0
9121,500,618927,725.0,4,1.0,0.0,3.0,6.0,73.0,5.0,high,main_task,0.0,13.0,0.0
9121,502,620574,641.0,1,0.0,1.0,3.0,6.0,74.0,5.0,high,main_task,0.0,16.0,4.0
9121,504,622303,725.0,2,2.0,1.0,3.0,6.0,75.0,5.0,high,main_task,2.0,14.0,1.0
9121,508,628873,351.0,1,0.0,0.0,14.0,7.0,1.0,6.0,high,main_task,2.0,18.0,0.0
9121,510,630328,448.0,2,0.0,0.0,14.0,7.0,2.0,6.0,high,main_task,2.0,17.0,0.0
9121,512,631838,503.0,3,0.0,0.0,14.0,7.0,3.0,6.0,high,main_task,2.0,14.0,0.0
9121,514,633279,435.0,4,0.0,1.0,14.0,7.0,4.0,6.0,high,main_task,0.0,13.0,1.0
9121,516,634882,597.0,5,0.0,0.0,14.0,7.0,5.0,6.0,high,main_task,2.0,18.0,0.0
9121,518,636438,549.0,6,0.0,1.0,14.0,7.0,6.0,6.0,high,main_task,0.0,15.0,1.0
9121,520,637934,491.0,6,0.0,1.0,14.0,7.0,7.0,6.0,high,main_task,0.0,15.0,2.0
9121,522,639607,667.0,3,1.0,0.0,14.0,7.0,8.0,6.0,high,main_task,2.0,14.0,0.0
9121,524,641251,639.0,1,0.0,0.0,14.0,7.0,9.0,6.0,high,main_task,2.0,18.0,0.0
9121,526,643736,1479.0,4,0.0,1.0,14.0,7.0,10.0,6.0,high,main_task,0.0,13.0,2.0
9121,528,645297,554.0,2,0.0,0.0,14.0,7.0,11.0,6.0,high,main_task,2.0,17.0,0.0
9121,530,646975,673.0,5,0.0,0.0,14.0,7.0,12.0,6.0,high,main_task,2.0,18.0,0.0
9121,532,648807,826.0,4,0.0,1.0,14.0,7.0,13.0,6.0,high,main_task,0.0,13.0,3.0
9121,534,650559,746.0,5,1.0,0.0,14.0,7.0,14.0,6.0,high,main_task,2.0,18.0,0.0
9121,536,652423,859.0,2,0.0,0.0,14.0,7.0,15.0,6.0,high,main_task,2.0,17.0,0.0
9121,538,654284,854.0,3,1.0,0.0,14.0,7.0,16.0,6.0,high,main_task,2.0,14.0,0.0
9121,540,655936,646.0,6,0.0,1.0,14.0,7.0,17.0,6.0,high,main_task,0.0,15.0,3.0
9121,542,657729,787.0,1,1.0,0.0,14.0,7.0,18.0,6.0,high,main_task,2.0,18.0,0.0
9121,544,659486,751.0,5,1.0,0.0,14.0,7.0,19.0,6.0,high,main_task,2.0,18.0,0.0
9121,546,660971,479.0,1,2.0,1.0,14.0,7.0,20.0,6.0,high,main_task,2.0,18.0,1.0
9121,548,662648,671.0,2,2.0,1.0,14.0,7.0,21.0,6.0,high,main_task,2.0,17.0,1.0
9121,550,664250,597.0,6,0.0,1.0,14.0,7.0,22.0,6.0,high,main_task,0.0,15.0,4.0
9121,552,665756,500.0,4,0.0,1.0,14.0,7.0,23.0,6.0,high,main_task,0.0,13.0,4.0
9121,554,667181,420.0,2,2.0,1.0,14.0,7.0,24.0,6.0,high,main_task,2.0,17.0,2.0
9121,556,668654,466.0,3,2.0,1.0,14.0,7.0,25.0,6.0,high,main_task,2.0,14.0,1.0
9121,558,670158,498.0,5,2.0,1.0,14.0,7.0,26.0,6.0,high,main_task,2.0,18.0,1.0
9121,560,671730,567.0,4,2.0,0.0,14.0,7.0,27.0,6.0,high,main_task,0.0,13.0,0.0
9121,562,673297,562.0,3,2.0,1.0,14.0,7.0,28.0,6.0,high,main_task,2.0,14.0,2.0
9121,564,674703,400.0,6,0.0,1.0,14.0,7.0,29.0,6.0,high,main_task,0.0,15.0,5.0
9121,566,676274,565.0,6,0.0,1.0,14.0,7.0,30.0,6.0,high,main_task,0.0,15.0,6.0
9121,568,677872,593.0,1,2.0,1.0,14.0,7.0,31.0,6.0,high,main_task,2.0,18.0,2.0
9121,570,679436,557.0,5,2.0,1.0,14.0,7.0,32.0,6.0,high,main_task,2.0,18.0,2.0
9121,572,681026,582.0,1,2.0,1.0,14.0,7.0,33.0,6.0,high,main_task,2.0,18.0,3.0
9121,574,682659,627.0,2,2.0,1.0,14.0,7.0,34.0,6.0,high,main_task,2.0,17.0,3.0
9121,576,684075,410.0,4,0.0,1.0,14.0,7.0,35.0,6.0,high,main_task,0.0,13.0,1.0
9121,578,685602,521.0,3,2.0,1.0,14.0,7.0,36.0,6.0,high,main_task,2.0,14.0,3.0
9121,580,687299,692.0,3,0.0,0.0,14.0,7.0,37.0,6.0,high,main_task,2.0,14.0,0.0
9121,582,688955,650.0,2,2.0,1.0,14.0,7.0,38.0,6.0,high,main_task,2.0,17.0,4.0
9121,584,690632,671.0,6,0.0,1.0,14.0,7.0,39.0,6.0,high,main_task,0.0,15.0,7.0
9121,586,692184,546.0,1,2.0,1.0,14.0,7.0,40.0,6.0,high,main_task,2.0,18.0,4.0
9121,588,693922,734.0,4,0.0,1.0,14.0,7.0,41.0,6.0,high,main_task,0.0,13.0,2.0
9121,590,695442,514.0,5,2.0,1.0,14.0,7.0,42.0,6.0,high,main_task,2.0,18.0,3.0
9121,592,698447,,5,-1.0,0.0,14.0,7.0,43.0,6.0,high,main_task,2.0,18.0,0.0
9121,594,700366,913.0,1,2.0,1.0,14.0,7.0,44.0,6.0,high,main_task,2.0,18.0,5.0
9121,596,701841,470.0,4,0.0,1.0,14.0,7.0,45.0,6.0,high,main_task,0.0,13.0,3.0
9121,598,703348,500.0,2,2.0,1.0,14.0,7.0,46.0,6.0,high,main_task,2.0,17.0,5.0
9121,600,704899,544.0,3,2.0,1.0,14.0,7.0,47.0,6.0,high,main_task,2.0,14.0,1.0
9121,602,706536,630.0,4,0.0,1.0,14.0,7.0,48.0,6.0,high,main_task,0.0,13.0,4.0
9121,604,708140,597.0,1,2.0,1.0,14.0,7.0,49.0,6.0,high,main_task,2.0,18.0,6.0
9121,606,710134,989.0,6,2.0,0.0,14.0,7.0,50.0,6.0,high,main_task,0.0,15.0,0.0
9121,608,711788,649.0,6,2.0,0.0,14.0,7.0,51.0,6.0,high,main_task,0.0,15.0,0.0
9121,610,713349,554.0,5,2.0,1.0,14.0,7.0,52.0,6.0,high,main_task,2.0,18.0,1.0
9121,612,715224,868.0,6,0.0,1.0,14.0,7.0,53.0,6.0,high,main_task,0.0,15.0,1.0
9121,614,717039,809.0,3,2.0,1.0,14.0,7.0,54.0,6.0,high,main_task,2.0,14.0,2.0
9121,616,718888,844.0,5,2.0,1.0,14.0,7.0,55.0,6.0,high,main_task,2.0,18.0,2.0
9121,618,720628,734.0,3,2.0,1.0,14.0,7.0,56.0,6.0,high,main_task,2.0,14.0,3.0
9121,620,721759,125.0,2,2.0,1.0,14.0,7.0,57.0,6.0,high,main_task,2.0,17.0,6.0
9121,622,723250,484.0,4,2.0,0.0,14.0,7.0,58.0,6.0,high,main_task,0.0,13.0,0.0
9121,624,724716,462.0,2,2.0,1.0,14.0,7.0,59.0,6.0,high,main_task,2.0,17.0,7.0
9121,626,727096,1375.0,1,2.0,1.0,14.0,7.0,60.0,6.0,high,main_task,2.0,18.0,7.0
9121,628,728612,509.0,3,2.0,1.0,14.0,7.0,61.0,6.0,high,main_task,2.0,14.0,4.0
9121,630,730007,390.0,6,2.0,0.0,14.0,7.0,62.0,6.0,high,main_task,0.0,15.0,0.0
9121,632,731463,450.0,2,2.0,1.0,14.0,7.0,63.0,6.0,high,main_task,2.0,17.0,8.0
9121,634,733045,575.0,4,2.0,0.0,14.0,7.0,64.0,6.0,high,main_task,0.0,13.0,0.0
9121,636,734697,647.0,1,2.0,1.0,14.0,7.0,65.0,6.0,high,main_task,2.0,18.0,8.0
9121,638,736245,541.0,5,2.0,1.0,14.0,7.0,66.0,6.0,high,main_task,2.0,18.0,3.0
9121,640,737798,547.0,4,0.0,1.0,14.0,7.0,67.0,6.0,high,main_task,0.0,13.0,1.0
9121,642,739253,449.0,3,2.0,1.0,14.0,7.0,68.0,6.0,high,main_task,2.0,14.0,5.0
9121,644,740785,526.0,2,2.0,1.0,14.0,7.0,69.0,6.0,high,main_task,2.0,17.0,9.0
9121,646,742399,608.0,6,0.0,1.0,14.0,7.0,70.0,6.0,high,main_task,0.0,15.0,1.0
9121,648,744252,847.0,1,2.0,1.0,14.0,7.0,71.0,6.0,high,main_task,2.0,18.0,9.0
9121,650,745754,496.0,1,2.0,1.0,14.0,7.0,72.0,6.0,high,main_task,2.0,18.0,10.0
9121,652,747292,532.0,5,2.0,1.0,14.0,7.0,73.0,6.0,high,main_task,2.0,18.0,4.0
9121,654,748853,555.0,2,2.0,1.0,14.0,7.0,74.0,6.0,high,main_task,2.0,17.0,10.0
9121,656,750479,619.0,5,2.0,1.0,14.0,7.0,75.0,6.0,high,main_task,2.0,18.0,5.0
9121,658,752105,621.0,4,0.0,1.0,14.0,7.0,76.0,6.0,high,main_task,0.0,13.0,2.0
9121,660,753756,645.0,4,0.0,1.0,14.0,7.0,77.0,6.0,high,main_task,0.0,13.0,3.0
9121,662,755279,519.0,6,0.0,1.0,14.0,7.0,78.0,6.0,high,main_task,0.0,15.0,2.0
9121,664,756830,545.0,3,2.0,1.0,14.0,7.0,79.0,6.0,high,main_task,2.0,14.0,6.0
9121,666,758394,558.0,1,2.0,1.0,14.0,7.0,80.0,6.0,high,main_task,2.0,18.0,11.0
9121,668,760137,737.0,6,0.0,1.0,14.0,7.0,81.0,6.0,high,main_task,0.0,15.0,3.0
9121,670,761696,552.0,3,2.0,1.0,14.0,7.0,82.0,6.0,high,main_task,2.0,14.0,7.0
9121,672,763206,503.0,2,2.0,1.0,14.0,7.0,83.0,6.0,high,main_task,2.0,17.0,11.0
9121,674,764741,529.0,1,2.0,1.0,14.0,7.0,84.0,6.0,high,main_task,2.0,18.0,12.0
9121,676,766332,585.0,5,2.0,1.0,14.0,7.0,85.0,6.0,high,main_task,2.0,18.0,6.0
9121,678,768001,664.0,6,0.0,1.0,14.0,7.0,86.0,6.0,high,main_task,0.0,15.0,4.0
9121,680,769487,480.0,5,2.0,1.0,14.0,7.0,87.0,6.0,high,main_task,2.0,18.0,7.0
9121,682,771181,688.0,4,2.0,0.0,14.0,7.0,88.0,6.0,high,main_task,0.0,13.0,0.0
9121,684,772796,610.0,3,2.0,1.0,14.0,7.0,89.0,6.0,high,main_task,2.0,14.0,8.0
9121,686,774662,859.0,3,2.0,1.0,14.0,7.0,90.0,6.0,high,main_task,2.0,14.0,9.0
9121,690,784626,527.0,1,0.0,0.0,19.0,8.0,1.0,2.0,low,main_task,1.0,16.0,0.0
9121,692,785938,305.0,2,0.0,0.0,19.0,8.0,2.0,2.0,low,main_task,2.0,16.0,0.0
9121,694,787250,307.0,1,1.0,1.0,19.0,8.0,3.0,2.0,low,main_task,1.0,16.0,1.0
9121,696,788942,685.0,2,2.0,1.0,19.0,8.0,4.0,2.0,low,main_task,2.0,16.0,1.0
9121,698,791048,1100.0,2,2.0,1.0,19.0,8.0,5.0,2.0,low,main_task,2.0,16.0,2.0
9121,700,792634,580.0,1,1.0,1.0,19.0,8.0,6.0,2.0,low,main_task,1.0,16.0,2.0
9121,702,794302,662.0,1,1.0,1.0,19.0,8.0,7.0,2.0,low,main_task,1.0,16.0,3.0
9121,704,795857,551.0,2,2.0,1.0,19.0,8.0,8.0,2.0,low,main_task,2.0,16.0,3.0
9121,706,797428,565.0,2,1.0,0.0,19.0,8.0,9.0,2.0,low,main_task,2.0,16.0,0.0
9121,708,799039,607.0,1,1.0,1.0,19.0,8.0,10.0,2.0,low,main_task,1.0,16.0,4.0
9121,710,800436,391.0,2,2.0,1.0,19.0,8.0,11.0,2.0,low,main_task,2.0,16.0,1.0
9121,712,801981,539.0,1,1.0,1.0,19.0,8.0,12.0,2.0,low,main_task,1.0,16.0,5.0
9121,714,803507,520.0,1,2.0,0.0,19.0,8.0,13.0,2.0,low,main_task,1.0,16.0,0.0
9121,716,804803,290.0,2,2.0,1.0,19.0,8.0,14.0,2.0,low,main_task,2.0,16.0,2.0
9121,718,806347,538.0,1,1.0,1.0,19.0,8.0,15.0,2.0,low,main_task,1.0,16.0,1.0
9121,720,807842,489.0,1,1.0,1.0,19.0,8.0,16.0,2.0,low,main_task,1.0,16.0,2.0
9121,722,809296,449.0,2,2.0,1.0,19.0,8.0,17.0,2.0,low,main_task,2.0,16.0,3.0
9121,724,810789,487.0,2,2.0,1.0,19.0,8.0,18.0,2.0,low,main_task,2.0,16.0,4.0
9121,726,812307,513.0,1,1.0,1.0,19.0,8.0,19.0,2.0,low,main_task,1.0,16.0,3.0
9121,728,813814,500.0,2,2.0,1.0,19.0,8.0,20.0,2.0,low,main_task,2.0,16.0,5.0
9121,730,815293,474.0,1,1.0,1.0,19.0,8.0,21.0,2.0,low,main_task,1.0,16.0,4.0
9121,732,816725,426.0,2,2.0,1.0,19.0,8.0,22.0,2.0,low,main_task,2.0,16.0,6.0
9121,734,818229,499.0,2,2.0,1.0,19.0,8.0,23.0,2.0,low,main_task,2.0,16.0,7.0
9121,736,819682,447.0,1,1.0,1.0,19.0,8.0,24.0,2.0,low,main_task,1.0,16.0,5.0
9121,738,821440,751.0,1,1.0,1.0,19.0,8.0,25.0,2.0,low,main_task,1.0,16.0,6.0
9121,740,823048,603.0,2,2.0,1.0,19.0,8.0,26.0,2.0,low,main_task,2.0,16.0,8.0
9121,742,824500,446.0,2,1.0,0.0,19.0,8.0,27.0,2.0,low,main_task,2.0,16.0,0.0
9121,744,826051,544.0,1,1.0,1.0,19.0,8.0,28.0,2.0,low,main_task,1.0,16.0,7.0
9121,746,827482,425.0,2,2.0,1.0,19.0,8.0,29.0,2.0,low,main_task,2.0,16.0,1.0
9121,748,829017,528.0,1,1.0,1.0,19.0,8.0,30.0,2.0,low,main_task,1.0,16.0,8.0
9121,752,861898,614.0,1,0.0,1.0,1.0,10.0,1.0,3.0,low,main_task,0.0,17.0,1.0
9121,754,863335,430.0,2,0.0,0.0,1.0,10.0,2.0,3.0,low,main_task,2.0,18.0,0.0
9121,756,864733,393.0,3,0.0,0.0,1.0,10.0,3.0,3.0,low,main_task,1.0,13.0,0.0
9121,758,866307,568.0,2,1.0,0.0,1.0,10.0,4.0,3.0,low,main_task,2.0,18.0,0.0
9121,760,867816,505.0,1,0.0,1.0,1.0,10.0,5.0,3.0,low,main_task,0.0,17.0,2.0
9121,762,869447,627.0,3,1.0,1.0,1.0,10.0,6.0,3.0,low,main_task,1.0,13.0,1.0
9121,764,871011,560.0,3,1.0,1.0,1.0,10.0,7.0,3.0,low,main_task,1.0,13.0,2.0
9121,766,872528,512.0,1,0.0,1.0,1.0,10.0,8.0,3.0,low,main_task,0.0,17.0,3.0
9121,768,874334,799.0,2,2.0,1.0,1.0,10.0,9.0,3.0,low,main_task,2.0,18.0,1.0
9121,770,875943,605.0,1,0.0,1.0,1.0,10.0,10.0,3.0,low,main_task,0.0,17.0,4.0
9121,772,877423,474.0,3,1.0,1.0,1.0,10.0,11.0,3.0,low,main_task,1.0,13.0,3.0
9121,774,878805,376.0,2,2.0,1.0,1.0,10.0,12.0,3.0,low,main_task,2.0,18.0,2.0
9121,776,880448,637.0,2,2.0,1.0,1.0,10.0,13.0,3.0,low,main_task,2.0,18.0,3.0
9121,778,881976,524.0,1,0.0,1.0,1.0,10.0,14.0,3.0,low,main_task,0.0,17.0,5.0
9121,780,883549,567.0,1,0.0,1.0,1.0,10.0,15.0,3.0,low,main_task,0.0,17.0,6.0
9121,782,885434,880.0,3,1.0,1.0,1.0,10.0,16.0,3.0,low,main_task,1.0,13.0,4.0
9121,784,887215,775.0,1,0.0,1.0,1.0,10.0,17.0,3.0,low,main_task,0.0,17.0,7.0
9121,786,888816,597.0,2,1.0,0.0,1.0,10.0,18.0,3.0,low,main_task,2.0,18.0,0.0
9121,788,890883,1061.0,3,1.0,1.0,1.0,10.0,19.0,3.0,low,main_task,1.0,13.0,5.0
9121,790,892703,813.0,2,2.0,1.0,1.0,10.0,20.0,3.0,low,main_task,2.0,18.0,1.0
9121,792,894860,1150.0,2,2.0,1.0,1.0,10.0,21.0,3.0,low,main_task,2.0,18.0,2.0
9121,794,896350,484.0,1,0.0,1.0,1.0,10.0,22.0,3.0,low,main_task,0.0,17.0,8.0
9121,796,898039,683.0,3,1.0,1.0,1.0,10.0,23.0,3.0,low,main_task,1.0,13.0,6.0
9121,798,899642,597.0,3,1.0,1.0,1.0,10.0,24.0,3.0,low,main_task,1.0,13.0,7.0
9121,800,901223,574.0,1,0.0,1.0,1.0,10.0,25.0,3.0,low,main_task,0.0,17.0,9.0
9121,802,903629,1402.0,2,1.0,0.0,1.0,10.0,26.0,3.0,low,main_task,2.0,18.0,0.0
9121,804,905202,565.0,1,0.0,1.0,1.0,10.0,27.0,3.0,low,main_task,0.0,17.0,10.0
9121,806,906765,558.0,3,1.0,1.0,1.0,10.0,28.0,3.0,low,main_task,1.0,13.0,8.0
9121,808,908258,487.0,3,1.0,1.0,1.0,10.0,29.0,3.0,low,main_task,1.0,13.0,9.0
9121,810,909715,452.0,2,2.0,1.0,1.0,10.0,30.0,3.0,low,main_task,2.0,18.0,1.0
9121,812,911395,674.0,3,1.0,1.0,1.0,10.0,31.0,3.0,low,main_task,1.0,13.0,10.0
9121,814,912900,499.0,1,0.0,1.0,1.0,10.0,32.0,3.0,low,main_task,0.0,17.0,11.0
9121,816,914517,611.0,2,2.0,1.0,1.0,10.0,33.0,3.0,low,main_task,2.0,18.0,2.0
9121,818,916131,608.0,3,1.0,1.0,1.0,10.0,34.0,3.0,low,main_task,1.0,13.0,11.0
9121,820,917766,629.0,2,2.0,1.0,1.0,10.0,35.0,3.0,low,main_task,2.0,18.0,3.0
9121,822,919309,538.0,1,0.0,1.0,1.0,10.0,36.0,3.0,low,main_task,0.0,17.0,12.0
9121,824,920830,515.0,1,0.0,1.0,1.0,10.0,37.0,3.0,low,main_task,0.0,17.0,13.0
9121,826,922433,596.0,2,2.0,1.0,1.0,10.0,38.0,3.0,low,main_task,2.0,18.0,4.0
9121,828,924066,626.0,3,1.0,1.0,1.0,10.0,39.0,3.0,low,main_task,1.0,13.0,12.0
9121,830,925573,502.0,3,1.0,1.0,1.0,10.0,40.0,3.0,low,main_task,1.0,13.0,13.0
9121,832,927255,678.0,1,0.0,1.0,1.0,10.0,41.0,3.0,low,main_task,0.0,17.0,14.0
9121,834,929135,876.0,2,2.0,1.0,1.0,10.0,42.0,3.0,low,main_task,2.0,18.0,5.0
9121,836,930704,565.0,1,0.0,1.0,1.0,10.0,43.0,3.0,low,main_task,0.0,17.0,15.0
9121,838,932565,858.0,2,2.0,1.0,1.0,10.0,44.0,3.0,low,main_task,2.0,18.0,6.0
9121,840,934111,541.0,3,1.0,0.0,1.0,10.0,45.0,3.0,low,main_task,0.0,inf,0.0
9121,844,944973,1160.0,1,0.0,0.0,10.0,11.0,1.0,6.0,high,main_task,2.0,13.0,0.0
9121,846,946311,333.0,2,0.0,0.0,10.0,11.0,2.0,6.0,high,main_task,2.0,15.0,0.0
9121,848,947773,455.0,3,0.0,0.0,10.0,11.0,3.0,6.0,high,main_task,2.0,13.0,0.0
9121,850,949206,427.0,4,0.0,1.0,10.0,11.0,4.0,6.0,high,main_task,0.0,14.0,1.0
9121,852,950767,556.0,5,0.0,0.0,10.0,11.0,5.0,6.0,high,main_task,1.0,14.0,0.0
9121,854,952282,509.0,6,0.0,0.0,10.0,11.0,6.0,6.0,high,main_task,1.0,13.0,0.0
9121,856,953800,513.0,5,1.0,1.0,10.0,11.0,7.0,6.0,high,main_task,1.0,14.0,1.0
9121,858,955460,655.0,4,1.0,0.0,10.0,11.0,8.0,6.0,high,main_task,0.0,14.0,0.0
9121,860,956975,509.0,2,1.0,0.0,10.0,11.0,9.0,6.0,high,main_task,2.0,15.0,0.0
9121,862,958372,391.0,1,1.0,0.0,10.0,11.0,10.0,6.0,high,main_task,2.0,13.0,0.0
9121,864,959844,466.0,3,1.0,0.0,10.0,11.0,11.0,6.0,high,main_task,2.0,13.0,0.0
9121,866,961482,632.0,6,1.0,1.0,10.0,11.0,12.0,6.0,high,main_task,1.0,13.0,1.0
9121,868,963490,1001.0,1,2.0,1.0,10.0,11.0,13.0,6.0,high,main_task,2.0,13.0,1.0
9121,870,965276,780.0,2,2.0,1.0,10.0,11.0,14.0,6.0,high,main_task,2.0,15.0,1.0
9121,872,967648,1365.0,3,2.0,1.0,10.0,11.0,15.0,6.0,high,main_task,2.0,13.0,1.0
9121,874,969511,858.0,5,1.0,1.0,10.0,11.0,16.0,6.0,high,main_task,1.0,14.0,2.0
9121,876,971070,552.0,5,1.0,1.0,10.0,11.0,17.0,6.0,high,main_task,1.0,14.0,3.0
9121,878,972852,776.0,4,2.0,0.0,10.0,11.0,18.0,6.0,high,main_task,0.0,14.0,0.0
9121,880,974601,741.0,6,1.0,1.0,10.0,11.0,19.0,6.0,high,main_task,1.0,13.0,2.0
9121,882,976218,610.0,3,1.0,0.0,10.0,11.0,20.0,6.0,high,main_task,2.0,13.0,0.0
9121,884,977843,620.0,1,2.0,1.0,10.0,11.0,21.0,6.0,high,main_task,2.0,13.0,2.0
9121,886,979656,807.0,6,1.0,1.0,10.0,11.0,22.0,6.0,high,main_task,1.0,13.0,3.0
9121,888,981318,656.0,1,2.0,1.0,10.0,11.0,23.0,6.0,high,main_task,2.0,13.0,3.0
9121,890,983008,684.0,2,2.0,1.0,10.0,11.0,24.0,6.0,high,main_task,2.0,15.0,2.0
9121,892,984507,492.0,4,0.0,1.0,10.0,11.0,25.0,6.0,high,main_task,0.0,14.0,1.0
9121,894,986327,814.0,3,2.0,1.0,10.0,11.0,26.0,6.0,high,main_task,2.0,13.0,1.0
9121,896,988026,694.0,3,2.0,1.0,10.0,11.0,27.0,6.0,high,main_task,2.0,13.0,2.0
9121,898,989566,533.0,5,1.0,1.0,10.0,11.0,28.0,6.0,high,main_task,1.0,14.0,4.0
9121,900,991454,882.0,4,0.0,1.0,10.0,11.0,29.0,6.0,high,main_task,0.0,14.0,2.0
9121,902,992965,506.0,2,2.0,1.0,10.0,11.0,30.0,6.0,high,main_task,2.0,15.0,3.0
9121,904,994770,799.0,6,1.0,1.0,10.0,11.0,31.0,6.0,high,main_task,1.0,13.0,4.0
9121,906,996345,570.0,2,2.0,1.0,10.0,11.0,32.0,6.0,high,main_task,2.0,15.0,4.0
9121,908,998003,650.0,1,2.0,1.0,10.0,11.0,33.0,6.0,high,main_task,2.0,13.0,4.0
9121,910,999549,539.0,4,0.0,1.0,10.0,11.0,34.0,6.0,high,main_task,0.0,14.0,3.0
9121,912,1001053,500.0,2,2.0,1.0,10.0,11.0,35.0,6.0,high,main_task,2.0,15.0,5.0
9121,914,1002843,784.0,5,1.0,1.0,10.0,11.0,36.0,6.0,high,main_task,1.0,14.0,5.0
9121,916,1004374,525.0,6,1.0,1.0,10.0,11.0,37.0,6.0,high,main_task,1.0,13.0,5.0
9121,918,1006057,677.0,3,2.0,1.0,10.0,11.0,38.0,6.0,high,main_task,2.0,13.0,3.0
9121,920,1008362,1299.0,6,1.0,1.0,10.0,11.0,39.0,6.0,high,main_task,1.0,13.0,6.0
9121,922,1009895,528.0,6,1.0,1.0,10.0,11.0,40.0,6.0,high,main_task,1.0,13.0,7.0
9121,924,1011477,576.0,4,0.0,1.0,10.0,11.0,41.0,6.0,high,main_task,0.0,14.0,4.0
9121,926,1013010,528.0,1,1.0,0.0,10.0,11.0,42.0,6.0,high,main_task,2.0,13.0,0.0
9121,928,1014569,553.0,3,2.0,1.0,10.0,11.0,43.0,6.0,high,main_task,2.0,13.0,4.0
9121,930,1016175,599.0,5,1.0,1.0,10.0,11.0,44.0,6.0,high,main_task,1.0,14.0,6.0
9121,932,1018509,1328.0,1,2.0,1.0,10.0,11.0,45.0,6.0,high,main_task,2.0,13.0,1.0
9121,934,1019992,478.0,2,2.0,1.0,10.0,11.0,46.0,6.0,high,main_task,2.0,15.0,6.0
9121,936,1021571,573.0,3,2.0,1.0,10.0,11.0,47.0,6.0,high,main_task,2.0,13.0,5.0
9121,938,1023116,538.0,4,0.0,1.0,10.0,11.0,48.0,6.0,high,main_task,0.0,14.0,5.0
9121,940,1024846,725.0,4,0.0,1.0,10.0,11.0,49.0,6.0,high,main_task,0.0,14.0,6.0
9121,942,1026599,747.0,6,1.0,1.0,10.0,11.0,50.0,6.0,high,main_task,1.0,13.0,8.0
9121,944,1028130,525.0,1,2.0,1.0,10.0,11.0,51.0,6.0,high,main_task,2.0,13.0,2.0
9121,946,1029807,669.0,5,1.0,1.0,10.0,11.0,52.0,6.0,high,main_task,1.0,14.0,7.0
9121,948,1032207,1394.0,5,1.0,1.0,10.0,11.0,53.0,6.0,high,main_task,1.0,14.0,8.0
9121,950,1033759,546.0,4,0.0,1.0,10.0,11.0,54.0,6.0,high,main_task,0.0,14.0,7.0
9121,952,1035618,853.0,2,2.0,1.0,10.0,11.0,55.0,6.0,high,main_task,2.0,15.0,7.0
9121,954,1037182,558.0,5,1.0,1.0,10.0,11.0,56.0,6.0,high,main_task,1.0,14.0,9.0
9121,956,1038767,579.0,2,2.0,1.0,10.0,11.0,57.0,6.0,high,main_task,2.0,15.0,8.0
9121,958,1040971,1197.0,3,2.0,1.0,10.0,11.0,58.0,6.0,high,main_task,2.0,13.0,6.0
9121,960,1042703,725.0,6,1.0,1.0,10.0,11.0,59.0,6.0,high,main_task,1.0,13.0,9.0
9121,962,1044168,459.0,5,1.0,1.0,10.0,11.0,60.0,6.0,high,main_task,1.0,14.0,10.0
9121,964,1045639,464.0,1,2.0,1.0,10.0,11.0,61.0,6.0,high,main_task,2.0,13.0,3.0
9121,966,1047177,531.0,6,0.0,0.0,10.0,11.0,62.0,6.0,high,main_task,1.0,13.0,0.0
9121,968,1048794,611.0,3,2.0,1.0,10.0,11.0,63.0,6.0,high,main_task,2.0,13.0,7.0
9121,970,1050345,546.0,2,2.0,1.0,10.0,11.0,64.0,6.0,high,main_task,2.0,15.0,9.0
9121,972,1051919,568.0,4,0.0,1.0,10.0,11.0,65.0,6.0,high,main_task,0.0,14.0,8.0
9121,974,1053461,534.0,1,2.0,1.0,10.0,11.0,66.0,6.0,high,main_task,2.0,13.0,4.0
9121,976,1055100,632.0,4,0.0,1.0,10.0,11.0,67.0,6.0,high,main_task,0.0,14.0,9.0
9121,978,1056912,806.0,6,1.0,1.0,10.0,11.0,68.0,6.0,high,main_task,1.0,13.0,1.0
9121,980,1058524,607.0,3,2.0,1.0,10.0,11.0,69.0,6.0,high,main_task,2.0,13.0,8.0
9121,982,1060086,556.0,5,1.0,1.0,10.0,11.0,70.0,6.0,high,main_task,1.0,14.0,11.0
9121,984,1061693,601.0,4,0.0,1.0,10.0,11.0,71.0,6.0,high,main_task,0.0,14.0,10.0
9121,986,1063250,552.0,2,2.0,1.0,10.0,11.0,72.0,6.0,high,main_task,2.0,15.0,10.0
9121,988,1064877,619.0,2,2.0,1.0,10.0,11.0,73.0,6.0,high,main_task,2.0,15.0,11.0
9121,990,1066409,526.0,1,2.0,1.0,10.0,11.0,74.0,6.0,high,main_task,2.0,13.0,5.0
9121,992,1068103,688.0,1,2.0,1.0,10.0,11.0,75.0,6.0,high,main_task,2.0,13.0,6.0
9121,994,1069625,515.0,3,2.0,1.0,10.0,11.0,76.0,6.0,high,main_task,2.0,13.0,9.0
9121,996,1071271,641.0,6,1.0,1.0,10.0,11.0,77.0,6.0,high,main_task,1.0,13.0,2.0
9121,998,1072859,581.0,1,2.0,1.0,10.0,11.0,78.0,6.0,high,main_task,2.0,13.0,7.0
9121,1000,1074423,558.0,5,1.0,1.0,10.0,11.0,79.0,6.0,high,main_task,1.0,14.0,12.0
9121,1002,1076027,598.0,3,2.0,1.0,10.0,11.0,80.0,6.0,high,main_task,2.0,13.0,10.0
9121,1004,1077691,658.0,4,0.0,1.0,10.0,11.0,81.0,6.0,high,main_task,0.0,14.0,11.0
9121,1006,1079328,631.0,6,1.0,1.0,10.0,11.0,82.0,6.0,high,main_task,1.0,13.0,3.0
9121,1008,1080946,612.0,4,0.0,1.0,10.0,11.0,83.0,6.0,high,main_task,0.0,14.0,12.0
9121,1010,1082900,948.0,2,2.0,1.0,10.0,11.0,84.0,6.0,high,main_task,2.0,15.0,12.0
9121,1012,1084582,676.0,5,1.0,1.0,10.0,11.0,85.0,6.0,high,main_task,1.0,14.0,13.0
9121,1014,1086117,529.0,5,1.0,1.0,10.0,11.0,86.0,6.0,high,main_task,1.0,14.0,14.0
9121,1016,1087747,624.0,2,2.0,1.0,10.0,11.0,87.0,6.0,high,main_task,2.0,15.0,13.0
9121,1018,1089275,522.0,3,1.0,0.0,10.0,11.0,88.0,6.0,high,main_task,2.0,13.0,0.0
9121,1020,1090749,467.0,1,2.0,1.0,10.0,11.0,89.0,6.0,high,main_task,2.0,13.0,8.0
9121,1022,1092400,645.0,5,1.0,0.0,10.0,11.0,90.0,6.0,high,main_task,2.0,inf,0.0
9121,1026,1096938,1057.0,1,0.0,0.0,11.0,12.0,1.0,5.0,high,main_task,1.0,12.0,0.0
9121,1028,1098310,366.0,2,0.0,0.0,11.0,12.0,2.0,5.0,high,main_task,2.0,13.0,0.0
9121,1030,1099683,367.0,3,0.0,0.0,11.0,12.0,3.0,5.0,high,main_task,1.0,15.0,0.0
9121,1032,1101053,364.0,4,0.0,1.0,11.0,12.0,4.0,5.0,high,main_task,0.0,14.0,1.0
9121,1034,1102423,363.0,5,0.0,0.0,11.0,12.0,5.0,5.0,high,main_task,1.0,15.0,0.0
9121,1036,1103992,562.0,4,0.0,1.0,11.0,12.0,6.0,5.0,high,main_task,0.0,14.0,2.0
9121,1038,1105383,385.0,2,1.0,0.0,11.0,12.0,7.0,5.0,high,main_task,2.0,13.0,0.0
9121,1040,1106775,387.0,1,1.0,1.0,11.0,12.0,8.0,5.0,high,main_task,1.0,12.0,1.0
9121,1042,1108186,407.0,5,1.0,1.0,11.0,12.0,9.0,5.0,high,main_task,1.0,15.0,1.0
9121,1044,1109565,372.0,3,1.0,1.0,11.0,12.0,10.0,5.0,high,main_task,1.0,15.0,1.0
9121,1046,1111214,641.0,3,1.0,1.0,11.0,12.0,11.0,5.0,high,main_task,1.0,15.0,2.0
9121,1048,1112924,704.0,5,0.0,0.0,11.0,12.0,12.0,5.0,high,main_task,1.0,15.0,0.0
9121,1050,1115091,1162.0,2,2.0,1.0,11.0,12.0,13.0,5.0,high,main_task,2.0,13.0,1.0
9121,1052,1116562,465.0,4,0.0,1.0,11.0,12.0,14.0,5.0,high,main_task,0.0,14.0,3.0
9121,1054,1118122,553.0,3,1.0,1.0,11.0,12.0,15.0,5.0,high,main_task,1.0,15.0,3.0
9121,1056,1119942,815.0,1,1.0,1.0,11.0,12.0,16.0,5.0,high,main_task,1.0,12.0,2.0
9121,1058,1121520,571.0,4,0.0,1.0,11.0,12.0,17.0,5.0,high,main_task,0.0,14.0,4.0
9121,1060,1123099,574.0,5,1.0,1.0,11.0,12.0,18.0,5.0,high,main_task,1.0,15.0,1.0
9121,1062,1124677,571.0,4,0.0,1.0,11.0,12.0,19.0,5.0,high,main_task,0.0,14.0,5.0
9121,1064,1126122,440.0,2,2.0,1.0,11.0,12.0,20.0,5.0,high,main_task,2.0,13.0,2.0
9121,1066,1127821,695.0,1,1.0,1.0,11.0,12.0,21.0,5.0,high,main_task,1.0,12.0,3.0
9121,1068,1129243,415.0,1,1.0,1.0,11.0,12.0,22.0,5.0,high,main_task,1.0,12.0,4.0
9121,1070,1131318,1069.0,5,1.0,1.0,11.0,12.0,23.0,5.0,high,main_task,1.0,15.0,2.0
9121,1072,1132976,652.0,3,1.0,1.0,11.0,12.0,24.0,5.0,high,main_task,1.0,15.0,4.0
9121,1074,1135115,1132.0,5,1.0,1.0,11.0,12.0,25.0,5.0,high,main_task,1.0,15.0,3.0
9121,1076,1136706,585.0,2,2.0,1.0,11.0,12.0,26.0,5.0,high,main_task,2.0,13.0,3.0
9121,1078,1138188,475.0,2,2.0,1.0,11.0,12.0,27.0,5.0,high,main_task,2.0,13.0,4.0
9121,1080,1139753,558.0,4,0.0,1.0,11.0,12.0,28.0,5.0,high,main_task,0.0,14.0,6.0
9121,1082,1141791,1032.0,5,2.0,0.0,11.0,12.0,29.0,5.0,high,main_task,1.0,15.0,0.0
9121,1084,1143473,676.0,1,1.0,1.0,11.0,12.0,30.0,5.0,high,main_task,1.0,12.0,5.0
9121,1086,1145270,792.0,3,1.0,1.0,11.0,12.0,31.0,5.0,high,main_task,1.0,15.0,5.0
9121,1088,1146962,686.0,5,1.0,1.0,11.0,12.0,32.0,5.0,high,main_task,1.0,15.0,1.0
9121,1090,1148574,606.0,2,1.0,0.0,11.0,12.0,33.0,5.0,high,main_task,2.0,13.0,0.0
9121,1092,1150094,514.0,1,1.0,1.0,11.0,12.0,34.0,5.0,high,main_task,1.0,12.0,6.0
9121,1094,1151557,458.0,2,1.0,0.0,11.0,12.0,35.0,5.0,high,main_task,2.0,13.0,0.0
9121,1096,1153152,589.0,4,0.0,1.0,11.0,12.0,36.0,5.0,high,main_task,0.0,14.0,7.0
9121,1098,1154989,832.0,4,0.0,1.0,11.0,12.0,37.0,5.0,high,main_task,0.0,14.0,8.0
9121,1100,1156520,525.0,3,1.0,1.0,11.0,12.0,38.0,5.0,high,main_task,1.0,15.0,6.0
9121,1102,1158138,613.0,1,1.0,1.0,11.0,12.0,39.0,5.0,high,main_task,1.0,12.0,7.0
9121,1104,1160014,870.0,4,0.0,1.0,11.0,12.0,40.0,5.0,high,main_task,0.0,14.0,9.0
9121,1106,1161566,546.0,5,2.0,0.0,11.0,12.0,41.0,5.0,high,main_task,1.0,15.0,0.0
9121,1108,1163127,555.0,3,1.0,1.0,11.0,12.0,42.0,5.0,high,main_task,1.0,15.0,7.0
9121,1110,1164640,507.0,3,1.0,1.0,11.0,12.0,43.0,5.0,high,main_task,1.0,15.0,8.0
9121,1112,1166313,667.0,2,2.0,1.0,11.0,12.0,44.0,5.0,high,main_task,2.0,13.0,1.0
9121,1114,1167883,564.0,1,1.0,1.0,11.0,12.0,45.0,5.0,high,main_task,1.0,12.0,8.0
9121,1116,1169571,682.0,2,2.0,1.0,11.0,12.0,46.0,5.0,high,main_task,2.0,13.0,2.0
9121,1118,1171140,563.0,1,1.0,1.0,11.0,12.0,47.0,5.0,high,main_task,1.0,12.0,9.0
9121,1120,1172603,457.0,4,0.0,1.0,11.0,12.0,48.0,5.0,high,main_task,0.0,14.0,10.0
9121,1122,1173984,375.0,2,2.0,1.0,11.0,12.0,49.0,5.0,high,main_task,2.0,13.0,3.0
9121,1124,1175500,510.0,5,1.0,1.0,11.0,12.0,50.0,5.0,high,main_task,1.0,15.0,1.0
9121,1126,1176998,493.0,3,1.0,1.0,11.0,12.0,51.0,5.0,high,main_task,1.0,15.0,9.0
9121,1128,1178535,531.0,1,1.0,1.0,11.0,12.0,52.0,5.0,high,main_task,1.0,12.0,10.0
9121,1130,1180210,668.0,5,1.0,1.0,11.0,12.0,53.0,5.0,high,main_task,1.0,15.0,2.0
9121,1132,1182130,913.0,4,0.0,1.0,11.0,12.0,54.0,5.0,high,main_task,0.0,14.0,11.0
9121,1134,1183717,581.0,3,1.0,1.0,11.0,12.0,55.0,5.0,high,main_task,1.0,15.0,10.0
9121,1136,1185767,1045.0,3,1.0,1.0,11.0,12.0,56.0,5.0,high,main_task,1.0,15.0,11.0
9121,1138,1187266,494.0,1,1.0,1.0,11.0,12.0,57.0,5.0,high,main_task,1.0,12.0,11.0
9121,1140,1188864,591.0,2,2.0,1.0,11.0,12.0,58.0,5.0,high,main_task,2.0,13.0,4.0
9121,1142,1191380,1510.0,4,0.0,1.0,11.0,12.0,59.0,5.0,high,main_task,0.0,14.0,12.0
9121,1144,1193017,632.0,5,1.0,1.0,11.0,12.0,60.0,5.0,high,main_task,1.0,15.0,3.0
9121,1146,1194485,461.0,5,1.0,1.0,11.0,12.0,61.0,5.0,high,main_task,1.0,15.0,4.0
9121,1148,1196098,607.0,4,0.0,1.0,11.0,12.0,62.0,5.0,high,main_task,0.0,14.0,13.0
9121,1150,1197610,507.0,1,1.0,1.0,11.0,12.0,63.0,5.0,high,main_task,1.0,12.0,12.0
9121,1152,1199297,680.0,3,1.0,1.0,11.0,12.0,64.0,5.0,high,main_task,1.0,15.0,12.0
9121,1154,1200811,508.0,2,2.0,1.0,11.0,12.0,65.0,5.0,high,main_task,2.0,13.0,5.0
9121,1156,1202380,564.0,3,1.0,1.0,11.0,12.0,66.0,5.0,high,main_task,1.0,15.0,13.0
9121,1158,1203935,547.0,1,1.0,0.0,11.0,12.0,67.0,5.0,high,main_task,0.0,inf,0.0
9121,1160,1205503,562.0,2,2.0,1.0,11.0,12.0,68.0,5.0,high,main_task,2.0,13.0,6.0
9121,1162,1206999,491.0,4,0.0,1.0,11.0,12.0,69.0,5.0,high,main_task,0.0,14.0,14.0
9121,1164,1208768,762.0,5,1.0,1.0,11.0,12.0,70.0,5.0,high,main_task,1.0,15.0,5.0
9121,1166,1210319,545.0,3,1.0,1.0,11.0,12.0,71.0,5.0,high,main_task,1.0,15.0,14.0
9121,1168,1211839,514.0,5,1.0,1.0,11.0,12.0,72.0,5.0,high,main_task,1.0,15.0,6.0
9121,1170,1213327,482.0,1,0.0,1.0,11.0,12.0,73.0,5.0,high,main_task,0.0,inf,1.0
9121,1172,1214766,433.0,1,0.0,1.0,11.0,12.0,74.0,5.0,high,main_task,0.0,inf,2.0
9121,1174,1216371,598.0,3,1.0,1.0,11.0,12.0,75.0,5.0,high,main_task,1.0,15.0,15.0
9121,1178,1219454,320.0,1,0.0,0.0,23.0,13.0,1.0,2.0,low,main_task,2.0,16.0,0.0
9121,1180,1220939,479.0,2,0.0,1.0,23.0,13.0,2.0,2.0,low,main_task,0.0,15.0,1.0
9121,1182,1222319,374.0,1,1.0,0.0,23.0,13.0,3.0,2.0,low,main_task,2.0,16.0,0.0
9121,1184,1223781,456.0,2,0.0,1.0,23.0,13.0,4.0,2.0,low,main_task,0.0,15.0,2.0
9121,1186,1225257,472.0,2,0.0,1.0,23.0,13.0,5.0,2.0,low,main_task,0.0,15.0,3.0
9121,1188,1226618,354.0,1,2.0,1.0,23.0,13.0,6.0,2.0,low,main_task,2.0,16.0,1.0
9121,1190,1228178,555.0,1,2.0,1.0,23.0,13.0,7.0,2.0,low,main_task,2.0,16.0,2.0
9121,1192,1229736,552.0,2,0.0,1.0,23.0,13.0,8.0,2.0,low,main_task,0.0,15.0,4.0
9121,1194,1231246,505.0,2,0.0,1.0,23.0,13.0,9.0,2.0,low,main_task,0.0,15.0,5.0
9121,1196,1232695,442.0,1,2.0,1.0,23.0,13.0,10.0,2.0,low,main_task,2.0,16.0,3.0
9121,1198,1234367,625.0,2,0.0,1.0,23.0,13.0,11.0,2.0,low,main_task,0.0,15.0,6.0
9121,1200,1235866,494.0,1,2.0,1.0,23.0,13.0,12.0,2.0,low,main_task,2.0,16.0,4.0
9121,1202,1237320,450.0,1,2.0,1.0,23.0,13.0,13.0,2.0,low,main_task,2.0,16.0,5.0
9121,1204,1239024,700.0,2,0.0,1.0,23.0,13.0,14.0,2.0,low,main_task,0.0,15.0,7.0
9121,1206,1240538,510.0,2,0.0,1.0,23.0,13.0,15.0,2.0,low,main_task,0.0,15.0,8.0
9121,1208,1241825,284.0,1,2.0,1.0,23.0,13.0,16.0,2.0,low,main_task,2.0,16.0,6.0
9121,1210,1243303,473.0,2,0.0,1.0,23.0,13.0,17.0,2.0,low,main_task,0.0,15.0,9.0
9121,1212,1244820,511.0,1,2.0,1.0,23.0,13.0,18.0,2.0,low,main_task,2.0,16.0,7.0
9121,1214,1246337,511.0,1,2.0,1.0,23.0,13.0,19.0,2.0,low,main_task,2.0,16.0,8.0
9121,1216,1247883,539.0,2,0.0,1.0,23.0,13.0,20.0,2.0,low,main_task,0.0,15.0,10.0
9121,1218,1249546,656.0,2,0.0,1.0,23.0,13.0,21.0,2.0,low,main_task,0.0,15.0,11.0
9121,1220,1250942,390.0,1,2.0,1.0,23.0,13.0,22.0,2.0,low,main_task,2.0,16.0,9.0
9121,1222,1252488,540.0,2,0.0,1.0,23.0,13.0,23.0,2.0,low,main_task,0.0,15.0,12.0
9121,1224,1254145,651.0,1,2.0,1.0,23.0,13.0,24.0,2.0,low,main_task,2.0,16.0,10.0
9121,1226,1255515,365.0,1,2.0,1.0,23.0,13.0,25.0,2.0,low,main_task,2.0,16.0,11.0
9121,1228,1257010,489.0,2,0.0,1.0,23.0,13.0,26.0,2.0,low,main_task,0.0,15.0,13.0
9121,1230,1258498,482.0,2,0.0,1.0,23.0,13.0,27.0,2.0,low,main_task,0.0,15.0,14.0
9121,1232,1260034,529.0,1,2.0,1.0,23.0,13.0,28.0,2.0,low,main_task,2.0,16.0,12.0
9121,1234,1261525,484.0,2,0.0,1.0,23.0,13.0,29.0,2.0,low,main_task,0.0,15.0,15.0
9121,1236,1263034,503.0,1,2.0,1.0,23.0,13.0,30.0,2.0,low,main_task,2.0,16.0,13.0
9121,1240,1266681,352.0,1,0.0,0.0,6.0,14.0,1.0,2.0,low,main_task,1.0,12.0,0.0
9121,1242,1268001,313.0,2,0.0,0.0,6.0,14.0,2.0,2.0,low,main_task,2.0,12.0,0.0
9121,1244,1269292,285.0,2,1.0,0.0,6.0,14.0,3.0,2.0,low,main_task,2.0,12.0,0.0
9121,1246,1270665,367.0,1,1.0,1.0,6.0,14.0,4.0,2.0,low,main_task,1.0,12.0,1.0
9121,1248,1272016,345.0,2,2.0,1.0,6.0,14.0,5.0,2.0,low,main_task,2.0,12.0,1.0
9121,1250,1273435,413.0,1,1.0,1.0,6.0,14.0,6.0,2.0,low,main_task,1.0,12.0,2.0
9121,1252,1275228,787.0,1,1.0,1.0,6.0,14.0,7.0,2.0,low,main_task,1.0,12.0,3.0
9121,1254,1276706,471.0,2,2.0,1.0,6.0,14.0,8.0,2.0,low,main_task,2.0,12.0,2.0
9121,1256,1278065,353.0,1,1.0,1.0,6.0,14.0,9.0,2.0,low,main_task,1.0,12.0,4.0
9121,1258,1279581,510.0,1,1.0,1.0,6.0,14.0,10.0,2.0,low,main_task,1.0,12.0,5.0
9121,1260,1280985,398.0,2,2.0,1.0,6.0,14.0,11.0,2.0,low,main_task,2.0,12.0,3.0
9121,1262,1282714,723.0,2,2.0,1.0,6.0,14.0,12.0,2.0,low,main_task,2.0,12.0,4.0
9121,1264,1284166,446.0,1,1.0,1.0,6.0,14.0,13.0,2.0,low,main_task,1.0,12.0,6.0
9121,1266,1285685,513.0,2,2.0,1.0,6.0,14.0,14.0,2.0,low,main_task,2.0,12.0,5.0
9121,1268,1287139,448.0,2,2.0,1.0,6.0,14.0,15.0,2.0,low,main_task,2.0,12.0,6.0
9121,1270,1288608,462.0,1,1.0,1.0,6.0,14.0,16.0,2.0,low,main_task,1.0,12.0,7.0
9121,1272,1290185,572.0,2,2.0,1.0,6.0,14.0,17.0,2.0,low,main_task,2.0,12.0,7.0
9121,1274,1291869,677.0,1,1.0,1.0,6.0,14.0,18.0,2.0,low,main_task,1.0,12.0,8.0
9121,1276,1293572,697.0,1,1.0,1.0,6.0,14.0,19.0,2.0,low,main_task,1.0,12.0,9.0
9121,1278,1294952,373.0,2,2.0,1.0,6.0,14.0,20.0,2.0,low,main_task,2.0,12.0,8.0
9121,1280,1296650,691.0,1,1.0,1.0,6.0,14.0,21.0,2.0,low,main_task,1.0,12.0,10.0
9121,1282,1298402,744.0,2,2.0,1.0,6.0,14.0,22.0,2.0,low,main_task,2.0,12.0,9.0
9121,1284,1300020,612.0,2,2.0,1.0,6.0,14.0,23.0,2.0,low,main_task,2.0,12.0,10.0
9121,1286,1301455,431.0,1,1.0,1.0,6.0,14.0,24.0,2.0,low,main_task,1.0,12.0,11.0
9121,1288,1303211,751.0,1,1.0,1.0,6.0,14.0,25.0,2.0,low,main_task,1.0,12.0,12.0
9121,1290,1304604,387.0,2,2.0,1.0,6.0,14.0,26.0,2.0,low,main_task,2.0,12.0,11.0
9121,1292,1306427,817.0,1,1.0,0.0,6.0,14.0,27.0,2.0,low,main_task,0.0,inf,0.0
9121,1294,1308156,724.0,1,1.0,0.0,6.0,14.0,28.0,2.0,low,main_task,0.0,inf,0.0
9121,1296,1309537,375.0,2,2.0,1.0,6.0,14.0,29.0,2.0,low,main_task,2.0,12.0,12.0
9121,1298,1311103,560.0,2,2.0,0.0,6.0,14.0,30.0,2.0,low,main_task,1.0,inf,0.0
9121,1302,1314910,323.0,1,0.0,0.0,5.0,15.0,1.0,5.0,high,main_task,2.0,15.0,0.0
9121,1304,1316166,249.0,2,0.0,0.0,5.0,15.0,2.0,5.0,high,main_task,2.0,17.0,0.0
9121,1306,1317470,298.0,3,0.0,0.0,5.0,15.0,3.0,5.0,high,main_task,1.0,15.0,0.0
9121,1308,1318751,276.0,4,0.0,0.0,5.0,15.0,4.0,5.0,high,main_task,1.0,18.0,0.0
9121,1310,1320026,269.0,5,0.0,0.0,5.0,15.0,5.0,5.0,high,main_task,1.0,17.0,0.0
9121,1312,1321369,338.0,5,1.0,1.0,5.0,15.0,6.0,5.0,high,main_task,1.0,17.0,1.0
9121,1314,1322839,463.0,1,1.0,0.0,5.0,15.0,7.0,5.0,high,main_task,2.0,15.0,0.0
9121,1316,1324313,468.0,3,1.0,1.0,5.0,15.0,8.0,5.0,high,main_task,1.0,15.0,1.0
9121,1318,1325738,418.0,4,1.0,1.0,5.0,15.0,9.0,5.0,high,main_task,1.0,18.0,1.0
9121,1320,1327289,545.0,2,1.0,0.0,5.0,15.0,10.0,5.0,high,main_task,2.0,17.0,0.0
9121,1322,1329329,1034.0,1,2.0,1.0,5.0,15.0,11.0,5.0,high,main_task,2.0,15.0,1.0
9121,1324,1330958,623.0,2,2.0,1.0,5.0,15.0,12.0,5.0,high,main_task,2.0,17.0,1.0
9121,1326,1332436,471.0,5,1.0,1.0,5.0,15.0,13.0,5.0,high,main_task,1.0,17.0,2.0
9121,1328,1334049,609.0,3,1.0,1.0,5.0,15.0,14.0,5.0,high,main_task,1.0,15.0,2.0
9121,1330,1335710,654.0,2,2.0,1.0,5.0,15.0,15.0,5.0,high,main_task,2.0,17.0,2.0
9121,1332,1337157,443.0,4,1.0,1.0,5.0,15.0,16.0,5.0,high,main_task,1.0,18.0,2.0
9121,1334,1338860,697.0,3,1.0,1.0,5.0,15.0,17.0,5.0,high,main_task,1.0,15.0,3.0
9121,1336,1340785,918.0,4,2.0,0.0,5.0,15.0,18.0,5.0,high,main_task,1.0,18.0,0.0
9121,1338,1342374,581.0,1,2.0,1.0,5.0,15.0,19.0,5.0,high,main_task,2.0,15.0,2.0
9121,1340,1344266,886.0,5,1.0,1.0,5.0,15.0,20.0,5.0,high,main_task,1.0,17.0,3.0
9121,1342,1345907,634.0,5,1.0,1.0,5.0,15.0,21.0,5.0,high,main_task,1.0,17.0,4.0
9121,1344,1347395,482.0,4,1.0,1.0,5.0,15.0,22.0,5.0,high,main_task,1.0,18.0,1.0
9121,1346,1348812,411.0,2,2.0,1.0,5.0,15.0,23.0,5.0,high,main_task,2.0,17.0,3.0
9121,1348,1350319,501.0,1,2.0,1.0,5.0,15.0,24.0,5.0,high,main_task,2.0,15.0,3.0
9121,1350,1351853,527.0,4,2.0,0.0,5.0,15.0,25.0,5.0,high,main_task,1.0,18.0,0.0
9121,1352,1354289,1430.0,3,1.0,1.0,5.0,15.0,26.0,5.0,high,main_task,1.0,15.0,4.0
9121,1354,1356099,803.0,5,1.0,1.0,5.0,15.0,27.0,5.0,high,main_task,1.0,17.0,5.0
9121,1356,1357871,765.0,3,1.0,1.0,5.0,15.0,28.0,5.0,high,main_task,1.0,15.0,5.0
9121,1358,1359474,598.0,3,1.0,1.0,5.0,15.0,29.0,5.0,high,main_task,1.0,15.0,6.0
9121,1360,1361239,761.0,1,2.0,1.0,5.0,15.0,30.0,5.0,high,main_task,2.0,15.0,4.0
9121,1362,1362800,555.0,2,2.0,1.0,5.0,15.0,31.0,5.0,high,main_task,2.0,17.0,4.0
9121,1364,1364734,927.0,2,2.0,1.0,5.0,15.0,32.0,5.0,high,main_task,2.0,17.0,5.0
9121,1366,1366149,408.0,1,2.0,1.0,5.0,15.0,33.0,5.0,high,main_task,2.0,15.0,5.0
9121,1368,1367626,470.0,4,1.0,1.0,5.0,15.0,34.0,5.0,high,main_task,1.0,18.0,1.0
9121,1370,1369313,680.0,5,1.0,1.0,5.0,15.0,35.0,5.0,high,main_task,1.0,17.0,6.0
9121,1372,1370750,430.0,2,2.0,1.0,5.0,15.0,36.0,5.0,high,main_task,2.0,17.0,6.0
9121,1374,1372231,474.0,1,2.0,1.0,5.0,15.0,37.0,5.0,high,main_task,2.0,15.0,6.0
9121,1376,1373776,538.0,3,2.0,0.0,5.0,15.0,38.0,5.0,high,main_task,1.0,15.0,0.0
9121,1378,1375536,755.0,4,1.0,1.0,5.0,15.0,39.0,5.0,high,main_task,1.0,18.0,2.0
9121,1380,1377196,654.0,5,1.0,1.0,5.0,15.0,40.0,5.0,high,main_task,1.0,17.0,7.0
9121,1382,1378758,556.0,4,1.0,1.0,5.0,15.0,41.0,5.0,high,main_task,1.0,18.0,3.0
9121,1384,1380916,1151.0,5,1.0,1.0,5.0,15.0,42.0,5.0,high,main_task,1.0,17.0,8.0
9121,1386,1383221,1300.0,2,2.0,1.0,5.0,15.0,43.0,5.0,high,main_task,2.0,17.0,7.0
9121,1388,1385389,1162.0,3,1.0,1.0,5.0,15.0,44.0,5.0,high,main_task,1.0,15.0,1.0
9121,1390,1386941,545.0,1,2.0,1.0,5.0,15.0,45.0,5.0,high,main_task,2.0,15.0,7.0
9121,1392,1388420,473.0,1,2.0,1.0,5.0,15.0,46.0,5.0,high,main_task,2.0,15.0,8.0
9121,1394,1390028,601.0,3,1.0,1.0,5.0,15.0,47.0,5.0,high,main_task,1.0,15.0,2.0
9121,1396,1391670,635.0,4,1.0,1.0,5.0,15.0,48.0,5.0,high,main_task,1.0,18.0,4.0
9121,1398,1393246,569.0,5,1.0,1.0,5.0,15.0,49.0,5.0,high,main_task,1.0,17.0,9.0
9121,1400,1394907,655.0,1,2.0,1.0,5.0,15.0,50.0,5.0,high,main_task,2.0,15.0,9.0
9121,1402,1396563,650.0,4,1.0,1.0,5.0,15.0,51.0,5.0,high,main_task,1.0,18.0,5.0
9121,1404,1398099,530.0,2,2.0,1.0,5.0,15.0,52.0,5.0,high,main_task,2.0,17.0,8.0
9121,1406,1399643,538.0,2,2.0,1.0,5.0,15.0,53.0,5.0,high,main_task,2.0,17.0,9.0
9121,1408,1401181,531.0,5,1.0,1.0,5.0,15.0,54.0,5.0,high,main_task,1.0,17.0,10.0
9121,1410,1402736,550.0,4,2.0,0.0,5.0,15.0,55.0,5.0,high,main_task,1.0,18.0,0.0
9121,1412,1404541,799.0,3,1.0,1.0,5.0,15.0,56.0,5.0,high,main_task,1.0,15.0,3.0
9121,1414,1406123,576.0,3,1.0,1.0,5.0,15.0,57.0,5.0,high,main_task,1.0,15.0,4.0
9121,1416,1407739,610.0,2,2.0,1.0,5.0,15.0,58.0,5.0,high,main_task,2.0,17.0,10.0
9121,1418,1410250,1505.0,1,1.0,0.0,5.0,15.0,59.0,5.0,high,main_task,2.0,15.0,0.0
9121,1420,1411821,565.0,5,1.0,1.0,5.0,15.0,60.0,5.0,high,main_task,1.0,17.0,11.0
9121,1422,1413369,543.0,1,2.0,1.0,5.0,15.0,61.0,5.0,high,main_task,2.0,15.0,1.0
9121,1424,1414962,585.0,4,1.0,1.0,5.0,15.0,62.0,5.0,high,main_task,1.0,18.0,1.0
9121,1426,1416468,499.0,3,1.0,1.0,5.0,15.0,63.0,5.0,high,main_task,1.0,15.0,5.0
9121,1428,1418123,648.0,5,1.0,1.0,5.0,15.0,64.0,5.0,high,main_task,1.0,17.0,12.0
9121,1430,1419769,641.0,3,1.0,1.0,5.0,15.0,65.0,5.0,high,main_task,1.0,15.0,6.0
9121,1432,1421377,602.0,2,2.0,1.0,5.0,15.0,66.0,5.0,high,main_task,2.0,17.0,11.0
9121,1434,1423041,657.0,5,1.0,1.0,5.0,15.0,67.0,5.0,high,main_task,1.0,17.0,13.0
9121,1436,1424587,540.0,4,1.0,1.0,5.0,15.0,68.0,5.0,high,main_task,1.0,18.0,2.0
9121,1438,1426168,573.0,1,2.0,1.0,5.0,15.0,69.0,5.0,high,main_task,2.0,15.0,2.0
9121,1440,1427794,620.0,2,2.0,1.0,5.0,15.0,70.0,5.0,high,main_task,2.0,17.0,12.0
9121,1442,1429435,635.0,2,2.0,1.0,5.0,15.0,71.0,5.0,high,main_task,2.0,17.0,13.0
9121,1444,1431086,646.0,1,2.0,1.0,5.0,15.0,72.0,5.0,high,main_task,2.0,15.0,3.0
9121,1446,1432740,648.0,4,1.0,1.0,5.0,15.0,73.0,5.0,high,main_task,1.0,18.0,3.0
9121,1448,1434633,886.0,3,1.0,1.0,5.0,15.0,74.0,5.0,high,main_task,1.0,15.0,7.0
9121,1450,1436229,590.0,4,1.0,1.0,5.0,15.0,75.0,5.0,high,main_task,1.0,18.0,4.0
9121,1454,1493971,337.0,1,0.0,0.0,8.0,16.0,1.0,6.0,high,main_task,2.0,13.0,0.0
9121,1456,1495216,237.0,2,0.0,0.0,8.0,16.0,2.0,6.0,high,main_task,2.0,13.0,0.0
9121,1458,1496534,311.0,3,0.0,1.0,8.0,16.0,3.0,6.0,high,main_task,0.0,12.0,1.0
9121,1460,1498065,524.0,4,0.0,1.0,8.0,16.0,4.0,6.0,high,main_task,0.0,14.0,1.0
9121,1462,1499541,469.0,5,0.0,0.0,8.0,16.0,5.0,6.0,high,main_task,2.0,16.0,0.0
9121,1464,1501081,535.0,6,0.0,0.0,8.0,16.0,6.0,6.0,high,main_task,1.0,17.0,0.0
9121,1466,1502778,691.0,1,1.0,0.0,8.0,16.0,7.0,6.0,high,main_task,2.0,13.0,0.0
9121,1468,1504159,374.0,3,1.0,0.0,8.0,16.0,8.0,6.0,high,main_task,0.0,12.0,0.0
9121,1470,1505755,590.0,2,1.0,0.0,8.0,16.0,9.0,6.0,high,main_task,2.0,13.0,0.0
9121,1472,1507283,522.0,6,1.0,1.0,8.0,16.0,10.0,6.0,high,main_task,1.0,17.0,1.0
9121,1474,1509081,792.0,4,0.0,1.0,8.0,16.0,11.0,6.0,high,main_task,0.0,14.0,2.0
9121,1476,1510679,593.0,2,1.0,0.0,8.0,16.0,12.0,6.0,high,main_task,2.0,13.0,0.0
9121,1478,1512354,670.0,5,1.0,0.0,8.0,16.0,13.0,6.0,high,main_task,2.0,16.0,0.0
9121,1480,1514181,822.0,5,2.0,1.0,8.0,16.0,14.0,6.0,high,main_task,2.0,16.0,1.0
9121,1482,1516025,838.0,1,2.0,1.0,8.0,16.0,15.0,6.0,high,main_task,2.0,13.0,1.0
9121,1484,1517946,914.0,5,2.0,1.0,8.0,16.0,16.0,6.0,high,main_task,2.0,16.0,2.0
9121,1486,1519604,653.0,3,0.0,1.0,8.0,16.0,17.0,6.0,high,main_task,0.0,12.0,1.0
9121,1488,1521357,747.0,2,2.0,1.0,8.0,16.0,18.0,6.0,high,main_task,2.0,13.0,1.0
9121,1490,1522850,486.0,6,1.0,1.0,8.0,16.0,19.0,6.0,high,main_task,1.0,17.0,2.0
9121,1492,1524403,547.0,6,1.0,1.0,8.0,16.0,20.0,6.0,high,main_task,1.0,17.0,3.0
9121,1494,1526090,681.0,4,0.0,1.0,8.0,16.0,21.0,6.0,high,main_task,0.0,14.0,3.0
9121,1496,1527688,591.0,3,0.0,1.0,8.0,16.0,22.0,6.0,high,main_task,0.0,12.0,2.0
9121,1498,1529352,658.0,4,0.0,1.0,8.0,16.0,23.0,6.0,high,main_task,0.0,14.0,4.0
9121,1500,1530923,564.0,6,1.0,1.0,8.0,16.0,24.0,6.0,high,main_task,1.0,17.0,4.0
9121,1502,1532573,644.0,1,2.0,1.0,8.0,16.0,25.0,6.0,high,main_task,2.0,13.0,2.0
9121,1504,1534154,575.0,4,0.0,1.0,8.0,16.0,26.0,6.0,high,main_task,0.0,14.0,5.0
9121,1506,1535970,810.0,5,2.0,1.0,8.0,16.0,27.0,6.0,high,main_task,2.0,16.0,3.0
9121,1508,1537585,611.0,3,0.0,1.0,8.0,16.0,28.0,6.0,high,main_task,0.0,12.0,3.0
9121,1510,1539249,658.0,2,2.0,1.0,8.0,16.0,29.0,6.0,high,main_task,2.0,13.0,2.0
9121,1512,1540883,627.0,1,2.0,1.0,8.0,16.0,30.0,6.0,high,main_task,2.0,13.0,3.0
9121,1514,1542494,607.0,3,0.0,1.0,8.0,16.0,31.0,6.0,high,main_task,0.0,12.0,4.0
9121,1516,1544059,559.0,6,1.0,1.0,8.0,16.0,32.0,6.0,high,main_task,1.0,17.0,5.0
9121,1518,1545625,560.0,4,1.0,0.0,8.0,16.0,33.0,6.0,high,main_task,0.0,14.0,0.0
9121,1520,1547146,516.0,1,2.0,1.0,8.0,16.0,34.0,6.0,high,main_task,2.0,13.0,4.0
9121,1522,1548736,584.0,5,2.0,1.0,8.0,16.0,35.0,6.0,high,main_task,2.0,16.0,4.0
9121,1524,1550328,588.0,5,2.0,1.0,8.0,16.0,36.0,6.0,high,main_task,2.0,16.0,5.0
9121,1526,1551817,485.0,3,0.0,1.0,8.0,16.0,37.0,6.0,high,main_task,0.0,12.0,5.0
9121,1528,1553381,560.0,2,2.0,1.0,8.0,16.0,38.0,6.0,high,main_task,2.0,13.0,3.0
9121,1530,1554885,501.0,1,2.0,1.0,8.0,16.0,39.0,6.0,high,main_task,2.0,13.0,5.0
9121,1532,1556692,803.0,2,2.0,1.0,8.0,16.0,40.0,6.0,high,main_task,2.0,13.0,4.0
9121,1534,1558257,559.0,6,1.0,1.0,8.0,16.0,41.0,6.0,high,main_task,1.0,17.0,6.0
9121,1536,1559829,565.0,4,0.0,1.0,8.0,16.0,42.0,6.0,high,main_task,0.0,14.0,1.0
9121,1538,1561493,658.0,4,0.0,1.0,8.0,16.0,43.0,6.0,high,main_task,0.0,14.0,2.0
9121,1540,1563080,581.0,6,1.0,1.0,8.0,16.0,44.0,6.0,high,main_task,1.0,17.0,7.0
9121,1542,1564662,576.0,4,0.0,1.0,8.0,16.0,45.0,6.0,high,main_task,0.0,14.0,3.0
9121,1544,1566100,431.0,5,2.0,1.0,8.0,16.0,46.0,6.0,high,main_task,2.0,16.0,6.0
9121,1546,1567716,609.0,2,2.0,1.0,8.0,16.0,47.0,6.0,high,main_task,2.0,13.0,5.0
9121,1548,1569345,623.0,3,0.0,1.0,8.0,16.0,48.0,6.0,high,main_task,0.0,12.0,6.0
9121,1550,1570872,520.0,1,2.0,1.0,8.0,16.0,49.0,6.0,high,main_task,2.0,13.0,6.0
9121,1552,1572403,526.0,5,2.0,1.0,8.0,16.0,50.0,6.0,high,main_task,2.0,16.0,7.0
9121,1554,1574609,1201.0,6,1.0,1.0,8.0,16.0,51.0,6.0,high,main_task,1.0,17.0,8.0
9121,1556,1576133,519.0,2,2.0,1.0,8.0,16.0,52.0,6.0,high,main_task,2.0,13.0,6.0
9121,1558,1577711,572.0,1,2.0,1.0,8.0,16.0,53.0,6.0,high,main_task,2.0,13.0,7.0
9121,1560,1579261,544.0,3,0.0,1.0,8.0,16.0,54.0,6.0,high,main_task,0.0,12.0,7.0
9121,1562,1580793,527.0,1,2.0,1.0,8.0,16.0,55.0,6.0,high,main_task,2.0,13.0,8.0
9121,1564,1582381,581.0,4,0.0,1.0,8.0,16.0,56.0,6.0,high,main_task,0.0,14.0,4.0
9121,1566,1583967,580.0,3,0.0,1.0,8.0,16.0,57.0,6.0,high,main_task,0.0,12.0,8.0
9121,1568,1585655,682.0,5,2.0,1.0,8.0,16.0,58.0,6.0,high,main_task,2.0,16.0,8.0
9121,1570,1587521,860.0,5,2.0,1.0,8.0,16.0,59.0,6.0,high,main_task,2.0,16.0,9.0
9121,1572,1589145,619.0,2,2.0,1.0,8.0,16.0,60.0,6.0,high,main_task,2.0,13.0,7.0
9121,1574,1590539,387.0,6,2.0,0.0,8.0,16.0,61.0,6.0,high,main_task,1.0,17.0,0.0
9121,1576,1592151,608.0,4,0.0,1.0,8.0,16.0,62.0,6.0,high,main_task,0.0,14.0,5.0
9121,1578,1593717,560.0,2,2.0,1.0,8.0,16.0,63.0,6.0,high,main_task,2.0,13.0,8.0
9121,1580,1595290,566.0,3,0.0,1.0,8.0,16.0,64.0,6.0,high,main_task,0.0,12.0,9.0
9121,1582,1596910,614.0,6,1.0,1.0,8.0,16.0,65.0,6.0,high,main_task,1.0,17.0,1.0
9121,1584,1598467,550.0,1,2.0,1.0,8.0,16.0,66.0,6.0,high,main_task,2.0,13.0,9.0
9121,1586,1600103,629.0,6,1.0,1.0,8.0,16.0,67.0,6.0,high,main_task,1.0,17.0,2.0
9121,1588,1601656,546.0,5,2.0,1.0,8.0,16.0,68.0,6.0,high,main_task,2.0,16.0,10.0
9121,1590,1603175,514.0,3,0.0,1.0,8.0,16.0,69.0,6.0,high,main_task,0.0,12.0,10.0
9121,1592,1604737,557.0,1,2.0,1.0,8.0,16.0,70.0,6.0,high,main_task,2.0,13.0,10.0
9121,1594,1606281,537.0,1,2.0,1.0,8.0,16.0,71.0,6.0,high,main_task,2.0,13.0,11.0
9121,1596,1607902,615.0,4,0.0,1.0,8.0,16.0,72.0,6.0,high,main_task,0.0,14.0,6.0
9121,1598,1609346,437.0,2,2.0,1.0,8.0,16.0,73.0,6.0,high,main_task,2.0,13.0,9.0
9121,1600,1611104,753.0,3,0.0,1.0,8.0,16.0,74.0,6.0,high,main_task,0.0,12.0,11.0
9121,1602,1612637,526.0,5,2.0,1.0,8.0,16.0,75.0,6.0,high,main_task,2.0,16.0,11.0
9121,1604,1614213,570.0,6,1.0,1.0,8.0,16.0,76.0,6.0,high,main_task,1.0,17.0,3.0
9121,1606,1615827,608.0,6,1.0,1.0,8.0,16.0,77.0,6.0,high,main_task,1.0,17.0,4.0
9121,1608,1617405,572.0,4,0.0,1.0,8.0,16.0,78.0,6.0,high,main_task,0.0,14.0,7.0
9121,1610,1619058,647.0,1,2.0,1.0,8.0,16.0,79.0,6.0,high,main_task,2.0,13.0,12.0
9121,1612,1620841,778.0,4,0.0,1.0,8.0,16.0,80.0,6.0,high,main_task,0.0,14.0,8.0
9121,1614,1622372,525.0,2,2.0,1.0,8.0,16.0,81.0,6.0,high,main_task,2.0,13.0,10.0
9121,1616,1624010,633.0,2,2.0,1.0,8.0,16.0,82.0,6.0,high,main_task,2.0,13.0,11.0
9121,1618,1625662,645.0,3,0.0,1.0,8.0,16.0,83.0,6.0,high,main_task,0.0,12.0,12.0
9121,1620,1627443,776.0,4,0.0,1.0,8.0,16.0,84.0,6.0,high,main_task,0.0,14.0,9.0
9121,1622,1629060,611.0,5,2.0,1.0,8.0,16.0,85.0,6.0,high,main_task,2.0,16.0,12.0
9121,1624,1630570,503.0,3,0.0,0.0,8.0,16.0,86.0,6.0,high,main_task,1.0,inf,0.0
9121,1626,1632155,580.0,2,2.0,1.0,8.0,16.0,87.0,6.0,high,main_task,2.0,13.0,12.0
9121,1628,1633703,541.0,6,1.0,1.0,8.0,16.0,88.0,6.0,high,main_task,1.0,17.0,5.0
9121,1630,1635236,527.0,3,1.0,1.0,8.0,16.0,89.0,6.0,high,main_task,1.0,inf,1.0
9121,1632,1636810,568.0,1,2.0,1.0,8.0,16.0,90.0,6.0,high,main_task,2.0,13.0,13.0
9121,1636,1640376,481.0,1,0.0,0.0,7.0,17.0,1.0,3.0,low,main_task,1.0,16.0,0.0
9121,1638,1641644,262.0,2,0.0,0.0,7.0,17.0,2.0,3.0,low,main_task,1.0,16.0,0.0
9121,1640,1643189,539.0,3,0.0,0.0,7.0,17.0,3.0,3.0,low,main_task,2.0,18.0,0.0
9121,1642,1644533,337.0,2,1.0,1.0,7.0,17.0,4.0,3.0,low,main_task,1.0,16.0,1.0
9121,1644,1645952,413.0,1,1.0,1.0,7.0,17.0,5.0,3.0,low,main_task,1.0,16.0,1.0
9121,1646,1647434,476.0,3,2.0,1.0,7.0,17.0,6.0,3.0,low,main_task,2.0,18.0,1.0
9121,1648,1649063,623.0,3,2.0,1.0,7.0,17.0,7.0,3.0,low,main_task,2.0,18.0,2.0
9121,1650,1650599,530.0,2,1.0,1.0,7.0,17.0,8.0,3.0,low,main_task,1.0,16.0,2.0
9121,1652,1652238,632.0,3,2.0,1.0,7.0,17.0,9.0,3.0,low,main_task,2.0,18.0,3.0
9121,1654,1653756,513.0,1,1.0,1.0,7.0,17.0,10.0,3.0,low,main_task,1.0,16.0,2.0
9121,1656,1655230,471.0,1,1.0,1.0,7.0,17.0,11.0,3.0,low,main_task,1.0,16.0,3.0
9121,1658,1656900,664.0,2,1.0,1.0,7.0,17.0,12.0,3.0,low,main_task,1.0,16.0,3.0
9121,1660,1658479,573.0,1,1.0,1.0,7.0,17.0,13.0,3.0,low,main_task,1.0,16.0,4.0
9121,1662,1659922,435.0,3,2.0,1.0,7.0,17.0,14.0,3.0,low,main_task,2.0,18.0,4.0
9121,1664,1661570,642.0,2,1.0,1.0,7.0,17.0,15.0,3.0,low,main_task,1.0,16.0,4.0
9121,1666,1663099,523.0,1,1.0,1.0,7.0,17.0,16.0,3.0,low,main_task,1.0,16.0,5.0
9121,1668,1664625,520.0,1,1.0,1.0,7.0,17.0,17.0,3.0,low,main_task,1.0,16.0,6.0
9121,1670,1666212,580.0,3,2.0,1.0,7.0,17.0,18.0,3.0,low,main_task,2.0,18.0,5.0
9121,1672,1667776,559.0,3,2.0,1.0,7.0,17.0,19.0,3.0,low,main_task,2.0,18.0,6.0
9121,1674,1669364,582.0,2,2.0,0.0,7.0,17.0,20.0,3.0,low,main_task,1.0,16.0,0.0
9121,1676,1670892,522.0,3,2.0,1.0,7.0,17.0,21.0,3.0,low,main_task,2.0,18.0,7.0
9121,1678,1672343,445.0,1,1.0,1.0,7.0,17.0,22.0,3.0,low,main_task,1.0,16.0,7.0
9121,1680,1673939,589.0,2,2.0,0.0,7.0,17.0,23.0,3.0,low,main_task,1.0,16.0,0.0
9121,1682,1675369,423.0,2,1.0,1.0,7.0,17.0,24.0,3.0,low,main_task,1.0,16.0,1.0
9121,1684,1677168,792.0,3,1.0,0.0,7.0,17.0,25.0,3.0,low,main_task,2.0,18.0,0.0
9121,1686,1678699,525.0,2,2.0,0.0,7.0,17.0,26.0,3.0,low,main_task,1.0,16.0,0.0
9121,1688,1680268,562.0,1,1.0,1.0,7.0,17.0,27.0,3.0,low,main_task,1.0,16.0,8.0
9121,1690,1681807,532.0,3,2.0,1.0,7.0,17.0,28.0,3.0,low,main_task,2.0,18.0,1.0
9121,1692,1683569,755.0,2,1.0,1.0,7.0,17.0,29.0,3.0,low,main_task,1.0,16.0,1.0
9121,1694,1685093,519.0,3,2.0,1.0,7.0,17.0,30.0,3.0,low,main_task,2.0,18.0,2.0
9121,1696,1686564,465.0,1,1.0,1.0,7.0,17.0,31.0,3.0,low,main_task,1.0,16.0,9.0
9121,1698,1688059,488.0,1,1.0,1.0,7.0,17.0,32.0,3.0,low,main_task,1.0,16.0,10.0
9121,1700,1689683,617.0,2,2.0,0.0,7.0,17.0,33.0,3.0,low,main_task,1.0,16.0,0.0
9121,1702,1691295,605.0,2,1.0,1.0,7.0,17.0,34.0,3.0,low,main_task,1.0,16.0,1.0
9121,1704,1692850,545.0,3,2.0,1.0,7.0,17.0,35.0,3.0,low,main_task,2.0,18.0,3.0
9121,1706,1694438,582.0,1,1.0,1.0,7.0,17.0,36.0,3.0,low,main_task,1.0,16.0,11.0
9121,1708,1696148,704.0,2,1.0,1.0,7.0,17.0,37.0,3.0,low,main_task,1.0,16.0,2.0
9121,1710,1697647,493.0,1,1.0,1.0,7.0,17.0,38.0,3.0,low,main_task,1.0,16.0,12.0
9121,1712,1699197,544.0,2,1.0,1.0,7.0,17.0,39.0,3.0,low,main_task,1.0,16.0,3.0
9121,1714,1700706,504.0,3,2.0,1.0,7.0,17.0,40.0,3.0,low,main_task,2.0,18.0,4.0
9121,1716,1702272,558.0,3,2.0,1.0,7.0,17.0,41.0,3.0,low,main_task,2.0,18.0,5.0
9121,1718,1704291,1012.0,2,1.0,1.0,7.0,17.0,42.0,3.0,low,main_task,1.0,16.0,4.0
9121,1720,1706094,797.0,1,1.0,1.0,7.0,17.0,43.0,3.0,low,main_task,1.0,16.0,13.0
9121,1722,1707624,525.0,1,1.0,1.0,7.0,17.0,44.0,3.0,low,main_task,1.0,16.0,14.0
9121,1724,1709283,652.0,3,2.0,1.0,7.0,17.0,45.0,3.0,low,main_task,2.0,18.0,6.0
9121,1728,1713065,646.0,1,0.0,1.0,16.0,19.0,1.0,5.0,high,main_task,0.0,15.0,1.0
9121,1730,1714509,437.0,2,0.0,1.0,16.0,19.0,2.0,5.0,high,main_task,0.0,16.0,1.0
9121,1732,1715944,428.0,3,0.0,1.0,16.0,19.0,3.0,5.0,high,main_task,0.0,14.0,1.0
9121,1734,1717609,658.0,4,0.0,0.0,16.0,19.0,4.0,5.0,high,main_task,1.0,14.0,0.0
9121,1736,1719395,780.0,5,0.0,1.0,16.0,19.0,5.0,5.0,high,main_task,0.0,15.0,1.0
9121,1738,1721194,793.0,3,0.0,1.0,16.0,19.0,6.0,5.0,high,main_task,0.0,14.0,2.0
9121,1740,1722868,667.0,1,0.0,1.0,16.0,19.0,7.0,5.0,high,main_task,0.0,15.0,2.0
9121,1742,1724618,745.0,4,1.0,1.0,16.0,19.0,8.0,5.0,high,main_task,1.0,14.0,1.0
9121,1744,1726162,537.0,2,0.0,1.0,16.0,19.0,9.0,5.0,high,main_task,0.0,16.0,2.0
9121,1746,1727743,576.0,5,0.0,1.0,16.0,19.0,10.0,5.0,high,main_task,0.0,15.0,2.0
9121,1748,1729334,585.0,2,0.0,1.0,16.0,19.0,11.0,5.0,high,main_task,0.0,16.0,3.0
9121,1750,1730795,457.0,5,0.0,1.0,16.0,19.0,12.0,5.0,high,main_task,0.0,15.0,3.0
9121,1752,1732220,420.0,4,1.0,1.0,16.0,19.0,13.0,5.0,high,main_task,1.0,14.0,2.0
9121,1754,1733563,338.0,3,0.0,1.0,16.0,19.0,14.0,5.0,high,main_task,0.0,14.0,3.0
9121,1756,1735110,540.0,1,0.0,1.0,16.0,19.0,15.0,5.0,high,main_task,0.0,15.0,3.0
9121,1758,1736892,776.0,1,0.0,1.0,16.0,19.0,16.0,5.0,high,main_task,0.0,15.0,4.0
9121,1760,1738516,617.0,2,0.0,1.0,16.0,19.0,17.0,5.0,high,main_task,0.0,16.0,4.0
9121,1762,1740092,569.0,3,0.0,1.0,16.0,19.0,18.0,5.0,high,main_task,0.0,14.0,4.0
9121,1764,1741580,482.0,3,0.0,1.0,16.0,19.0,19.0,5.0,high,main_task,0.0,14.0,5.0
9121,1766,1743075,489.0,4,1.0,1.0,16.0,19.0,20.0,5.0,high,main_task,1.0,14.0,3.0
9121,1768,1744625,543.0,5,0.0,1.0,16.0,19.0,21.0,5.0,high,main_task,0.0,15.0,4.0
9121,1770,1746490,858.0,2,0.0,1.0,16.0,19.0,22.0,5.0,high,main_task,0.0,16.0,5.0
9121,1772,1748349,852.0,4,1.0,1.0,16.0,19.0,23.0,5.0,high,main_task,1.0,14.0,4.0
9121,1774,1749886,531.0,5,0.0,1.0,16.0,19.0,24.0,5.0,high,main_task,0.0,15.0,5.0
9121,1776,1751318,426.0,1,0.0,1.0,16.0,19.0,25.0,5.0,high,main_task,0.0,15.0,5.0
9121,1778,1752817,492.0,5,0.0,1.0,16.0,19.0,26.0,5.0,high,main_task,0.0,15.0,6.0
9121,1780,1754360,537.0,4,1.0,1.0,16.0,19.0,27.0,5.0,high,main_task,1.0,14.0,5.0
9121,1782,1755906,541.0,3,0.0,1.0,16.0,19.0,28.0,5.0,high,main_task,0.0,14.0,6.0
9121,1784,1757436,522.0,2,0.0,1.0,16.0,19.0,29.0,5.0,high,main_task,0.0,16.0,6.0
9121,1786,1758939,497.0,2,0.0,1.0,16.0,19.0,30.0,5.0,high,main_task,0.0,16.0,7.0
9121,1788,1760467,522.0,1,0.0,1.0,16.0,19.0,31.0,5.0,high,main_task,0.0,15.0,6.0
9121,1790,1761926,452.0,4,1.0,1.0,16.0,19.0,32.0,5.0,high,main_task,1.0,14.0,6.0
9121,1792,1763536,603.0,5,0.0,1.0,16.0,19.0,33.0,5.0,high,main_task,0.0,15.0,7.0
9121,1794,1765074,531.0,1,0.0,1.0,16.0,19.0,34.0,5.0,high,main_task,0.0,15.0,7.0
9121,1796,1766567,488.0,5,0.0,1.0,16.0,19.0,35.0,5.0,high,main_task,0.0,15.0,8.0
9121,1798,1768195,622.0,3,0.0,1.0,16.0,19.0,36.0,5.0,high,main_task,0.0,14.0,7.0
9121,1800,1769755,554.0,3,0.0,1.0,16.0,19.0,37.0,5.0,high,main_task,0.0,14.0,8.0
9121,1802,1771431,668.0,1,0.0,1.0,16.0,19.0,38.0,5.0,high,main_task,0.0,15.0,8.0
9121,1804,1772894,456.0,2,0.0,1.0,16.0,19.0,39.0,5.0,high,main_task,0.0,16.0,8.0
9121,1806,1774458,558.0,4,1.0,1.0,16.0,19.0,40.0,5.0,high,main_task,1.0,14.0,7.0
9121,1808,1776009,544.0,5,0.0,1.0,16.0,19.0,41.0,5.0,high,main_task,0.0,15.0,9.0
9121,1810,1777611,596.0,2,0.0,1.0,16.0,19.0,42.0,5.0,high,main_task,0.0,16.0,9.0
9121,1812,1779146,528.0,3,0.0,1.0,16.0,19.0,43.0,5.0,high,main_task,0.0,14.0,9.0
9121,1814,1780703,551.0,4,1.0,1.0,16.0,19.0,44.0,5.0,high,main_task,1.0,14.0,8.0
9121,1816,1782749,1040.0,1,0.0,1.0,16.0,19.0,45.0,5.0,high,main_task,0.0,15.0,9.0
9121,1818,1785682,1927.0,4,1.0,1.0,16.0,19.0,46.0,5.0,high,main_task,1.0,14.0,9.0
9121,1820,1787302,614.0,2,0.0,1.0,16.0,19.0,47.0,5.0,high,main_task,0.0,16.0,10.0
9121,1822,1789446,1137.0,2,0.0,1.0,16.0,19.0,48.0,5.0,high,main_task,0.0,16.0,11.0
9121,1824,1792029,1576.0,5,0.0,1.0,16.0,19.0,49.0,5.0,high,main_task,0.0,15.0,10.0
9121,1826,1794216,1181.0,3,0.0,1.0,16.0,19.0,50.0,5.0,high,main_task,0.0,14.0,10.0
9121,1828,1796349,1127.0,1,0.0,1.0,16.0,19.0,51.0,5.0,high,main_task,0.0,15.0,10.0
9121,1830,1797877,522.0,1,0.0,1.0,16.0,19.0,52.0,5.0,high,main_task,0.0,15.0,11.0
9121,1832,1799630,747.0,5,0.0,1.0,16.0,19.0,53.0,5.0,high,main_task,0.0,15.0,11.0
9121,1834,1801203,567.0,4,1.0,1.0,16.0,19.0,54.0,5.0,high,main_task,1.0,14.0,10.0
9121,1836,1802833,624.0,3,0.0,1.0,16.0,19.0,55.0,5.0,high,main_task,0.0,14.0,11.0
9121,1838,1804622,782.0,4,1.0,1.0,16.0,19.0,56.0,5.0,high,main_task,1.0,14.0,11.0
9121,1840,1807163,1535.0,2,0.0,1.0,16.0,19.0,57.0,5.0,high,main_task,0.0,16.0,12.0
9121,1842,1808769,600.0,3,0.0,1.0,16.0,19.0,58.0,5.0,high,main_task,0.0,14.0,12.0
9121,1844,1810492,717.0,2,0.0,1.0,16.0,19.0,59.0,5.0,high,main_task,0.0,16.0,13.0
9121,1846,1811979,482.0,1,0.0,1.0,16.0,19.0,60.0,5.0,high,main_task,0.0,15.0,12.0
9121,1848,1813600,614.0,4,1.0,1.0,16.0,19.0,61.0,5.0,high,main_task,1.0,14.0,12.0
9121,1850,1815131,525.0,5,0.0,1.0,16.0,19.0,62.0,5.0,high,main_task,0.0,15.0,12.0
9121,1852,1816683,546.0,1,0.0,1.0,16.0,19.0,63.0,5.0,high,main_task,0.0,15.0,13.0
9121,1854,1818132,443.0,3,0.0,1.0,16.0,19.0,64.0,5.0,high,main_task,0.0,14.0,13.0
9121,1856,1819595,457.0,3,0.0,1.0,16.0,19.0,65.0,5.0,high,main_task,0.0,14.0,14.0
9121,1858,1821033,433.0,5,0.0,1.0,16.0,19.0,66.0,5.0,high,main_task,0.0,15.0,13.0
9121,1860,1822457,419.0,1,0.0,1.0,16.0,19.0,67.0,5.0,high,main_task,0.0,15.0,14.0
9121,1862,1823910,446.0,2,0.0,1.0,16.0,19.0,68.0,5.0,high,main_task,0.0,16.0,14.0
9121,1864,1825334,418.0,5,0.0,1.0,16.0,19.0,69.0,5.0,high,main_task,0.0,15.0,14.0
9121,1866,1826897,558.0,4,1.0,1.0,16.0,19.0,70.0,5.0,high,main_task,1.0,14.0,13.0
9121,1868,1828463,559.0,4,1.0,1.0,16.0,19.0,71.0,5.0,high,main_task,1.0,14.0,14.0
9121,1870,1830273,804.0,3,0.0,0.0,16.0,19.0,72.0,5.0,high,main_task,1.0,inf,0.0
9121,1872,1831760,481.0,1,0.0,1.0,16.0,19.0,73.0,5.0,high,main_task,0.0,15.0,15.0
9121,1874,1833320,553.0,5,0.0,1.0,16.0,19.0,74.0,5.0,high,main_task,0.0,15.0,15.0
9121,1876,1835381,1054.0,2,0.0,1.0,16.0,19.0,75.0,5.0,high,main_task,0.0,16.0,15.0
9121,1880,1838768,406.0,1,0.0,0.0,21.0,20.0,1.0,6.0,high,main_task,1.0,12.0,0.0
9121,1882,1840059,284.0,2,0.0,0.0,21.0,20.0,2.0,6.0,high,main_task,2.0,16.0,0.0
9121,1884,1841423,358.0,3,0.0,1.0,21.0,20.0,3.0,6.0,high,main_task,0.0,12.0,1.0
9121,1886,1842745,316.0,4,0.0,0.0,21.0,20.0,4.0,6.0,high,main_task,2.0,15.0,0.0
9121,1888,1844212,460.0,5,0.0,1.0,21.0,20.0,5.0,6.0,high,main_task,0.0,17.0,1.0
9121,1890,1845646,428.0,6,0.0,0.0,21.0,20.0,6.0,6.0,high,main_task,1.0,13.0,0.0
9121,1892,1847142,490.0,6,0.0,0.0,21.0,20.0,7.0,6.0,high,main_task,1.0,13.0,0.0
9121,1894,1848870,721.0,3,0.0,1.0,21.0,20.0,8.0,6.0,high,main_task,0.0,12.0,2.0
9121,1896,1850386,509.0,5,0.0,1.0,21.0,20.0,9.0,6.0,high,main_task,0.0,17.0,2.0
9121,1898,1851649,257.0,1,1.0,1.0,21.0,20.0,10.0,6.0,high,main_task,1.0,12.0,1.0
9121,1900,1853219,564.0,4,1.0,0.0,21.0,20.0,11.0,6.0,high,main_task,2.0,15.0,0.0
9121,1902,1854914,689.0,2,1.0,0.0,21.0,20.0,12.0,6.0,high,main_task,2.0,16.0,0.0
9121,1904,1857187,1267.0,4,1.0,0.0,21.0,20.0,13.0,6.0,high,main_task,2.0,15.0,0.0
9121,1906,1858848,654.0,3,0.0,1.0,21.0,20.0,14.0,6.0,high,main_task,0.0,12.0,3.0
9121,1908,1860495,641.0,6,1.0,1.0,21.0,20.0,15.0,6.0,high,main_task,1.0,13.0,1.0
9121,1910,1863493,1993.0,5,0.0,1.0,21.0,20.0,16.0,6.0,high,main_task,0.0,17.0,3.0
9121,1912,1865447,948.0,2,2.0,1.0,21.0,20.0,17.0,6.0,high,main_task,2.0,16.0,1.0
9121,1914,1867603,1149.0,1,1.0,1.0,21.0,20.0,18.0,6.0,high,main_task,1.0,12.0,2.0
9121,1916,1869014,406.0,6,1.0,1.0,21.0,20.0,19.0,6.0,high,main_task,1.0,13.0,2.0
9121,1918,1870787,769.0,2,2.0,1.0,21.0,20.0,20.0,6.0,high,main_task,2.0,16.0,2.0
9121,1920,1872587,796.0,1,1.0,1.0,21.0,20.0,21.0,6.0,high,main_task,1.0,12.0,3.0
9121,1922,1874955,1364.0,5,0.0,1.0,21.0,20.0,22.0,6.0,high,main_task,0.0,17.0,4.0
9121,1924,1876409,450.0,4,2.0,1.0,21.0,20.0,23.0,6.0,high,main_task,2.0,15.0,1.0
9121,1926,1878216,804.0,5,0.0,1.0,21.0,20.0,24.0,6.0,high,main_task,0.0,17.0,5.0
9121,1928,1879815,595.0,3,1.0,0.0,21.0,20.0,25.0,6.0,high,main_task,0.0,12.0,0.0
9121,1930,1881488,666.0,3,0.0,1.0,21.0,20.0,26.0,6.0,high,main_task,0.0,12.0,1.0
9121,1932,1883674,1180.0,1,1.0,1.0,21.0,20.0,27.0,6.0,high,main_task,1.0,12.0,4.0
9121,1934,1885297,616.0,6,1.0,1.0,21.0,20.0,28.0,6.0,high,main_task,1.0,13.0,3.0
9121,1936,1886888,585.0,2,2.0,1.0,21.0,20.0,29.0,6.0,high,main_task,2.0,16.0,3.0
9121,1938,1888397,504.0,4,2.0,1.0,21.0,20.0,30.0,6.0,high,main_task,2.0,15.0,2.0
9121,1940,1890158,756.0,6,1.0,1.0,21.0,20.0,31.0,6.0,high,main_task,1.0,13.0,4.0
9121,1942,1891934,769.0,4,2.0,1.0,21.0,20.0,32.0,6.0,high,main_task,2.0,15.0,3.0
9121,1944,1894019,1079.0,2,2.0,1.0,21.0,20.0,33.0,6.0,high,main_task,2.0,16.0,4.0
9121,1946,1895789,764.0,5,0.0,1.0,21.0,20.0,34.0,6.0,high,main_task,0.0,17.0,6.0
9121,1948,1897663,868.0,1,1.0,1.0,21.0,20.0,35.0,6.0,high,main_task,1.0,12.0,5.0
9121,1950,1899260,589.0,1,1.0,1.0,21.0,20.0,36.0,6.0,high,main_task,1.0,12.0,6.0
9121,1952,1900874,607.0,3,0.0,1.0,21.0,20.0,37.0,6.0,high,main_task,0.0,12.0,2.0
9121,1954,1902880,999.0,2,2.0,1.0,21.0,20.0,38.0,6.0,high,main_task,2.0,16.0,5.0
9121,1956,1904405,519.0,6,1.0,1.0,21.0,20.0,39.0,6.0,high,main_task,1.0,13.0,5.0
9121,1958,1906145,733.0,5,0.0,1.0,21.0,20.0,40.0,6.0,high,main_task,0.0,17.0,7.0
9121,1960,1908511,1361.0,4,2.0,1.0,21.0,20.0,41.0,6.0,high,main_task,2.0,15.0,4.0
9121,1962,1910206,687.0,3,0.0,1.0,21.0,20.0,42.0,6.0,high,main_task,0.0,12.0,3.0
9121,1964,1911807,595.0,3,0.0,1.0,21.0,20.0,43.0,6.0,high,main_task,0.0,12.0,4.0
9121,1966,1913581,768.0,4,2.0,1.0,21.0,20.0,44.0,6.0,high,main_task,2.0,15.0,5.0
9121,1968,1915384,797.0,2,2.0,1.0,21.0,20.0,45.0,6.0,high,main_task,2.0,16.0,6.0
9121,1970,1916970,580.0,1,1.0,1.0,21.0,20.0,46.0,6.0,high,main_task,1.0,12.0,7.0
9121,1972,1918792,816.0,2,2.0,1.0,21.0,20.0,47.0,6.0,high,main_task,2.0,16.0,7.0
9121,1974,1920477,678.0,4,2.0,1.0,21.0,20.0,48.0,6.0,high,main_task,2.0,15.0,6.0
9121,1976,1922138,653.0,5,0.0,1.0,21.0,20.0,49.0,6.0,high,main_task,0.0,17.0,8.0
9121,1978,1923741,598.0,6,1.0,1.0,21.0,20.0,50.0,6.0,high,main_task,1.0,13.0,6.0
9121,1980,1925596,848.0,1,1.0,1.0,21.0,20.0,51.0,6.0,high,main_task,1.0,12.0,8.0
9121,1982,1927154,552.0,6,1.0,1.0,21.0,20.0,52.0,6.0,high,main_task,1.0,13.0,7.0
9121,1984,1928747,585.0,3,0.0,1.0,21.0,20.0,53.0,6.0,high,main_task,0.0,12.0,5.0
9121,1986,1930295,542.0,1,1.0,1.0,21.0,20.0,54.0,6.0,high,main_task,1.0,12.0,9.0
9121,1988,1931736,434.0,5,0.0,1.0,21.0,20.0,55.0,6.0,high,main_task,0.0,17.0,9.0
9121,1990,1933411,668.0,6,1.0,1.0,21.0,20.0,56.0,6.0,high,main_task,1.0,13.0,8.0
9121,1992,1934985,567.0,3,0.0,1.0,21.0,20.0,57.0,6.0,high,main_task,0.0,12.0,6.0
9121,1994,1936647,657.0,2,2.0,1.0,21.0,20.0,58.0,6.0,high,main_task,2.0,16.0,8.0
9121,1996,1938057,403.0,4,2.0,1.0,21.0,20.0,59.0,6.0,high,main_task,2.0,15.0,7.0
9121,1998,1939622,561.0,5,0.0,1.0,21.0,20.0,60.0,6.0,high,main_task,0.0,17.0,10.0
9121,2000,1941221,593.0,5,0.0,1.0,21.0,20.0,61.0,6.0,high,main_task,0.0,17.0,11.0
9121,2002,1944185,1959.0,1,0.0,0.0,21.0,20.0,62.0,6.0,high,main_task,1.0,12.0,0.0
9121,2004,1945780,588.0,6,1.0,1.0,21.0,20.0,63.0,6.0,high,main_task,1.0,13.0,9.0
9121,2006,1947314,528.0,3,0.0,1.0,21.0,20.0,64.0,6.0,high,main_task,0.0,12.0,7.0
9121,2008,1948946,625.0,4,2.0,1.0,21.0,20.0,65.0,6.0,high,main_task,2.0,15.0,8.0
9121,2010,1950843,890.0,2,2.0,1.0,21.0,20.0,66.0,6.0,high,main_task,2.0,16.0,9.0
9121,2012,1952428,579.0,2,2.0,1.0,21.0,20.0,67.0,6.0,high,main_task,2.0,16.0,10.0
9121,2014,1953993,559.0,4,2.0,1.0,21.0,20.0,68.0,6.0,high,main_task,2.0,15.0,9.0
9121,2016,1955093,95.0,1,2.0,0.0,21.0,20.0,69.0,6.0,high,main_task,1.0,12.0,0.0
9121,2018,1957202,1102.0,5,0.0,1.0,21.0,20.0,70.0,6.0,high,main_task,0.0,17.0,12.0
9121,2020,1958808,599.0,1,1.0,1.0,21.0,20.0,71.0,6.0,high,main_task,1.0,12.0,1.0
9121,2022,1960377,562.0,6,1.0,1.0,21.0,20.0,72.0,6.0,high,main_task,1.0,13.0,10.0
9121,2024,1962338,955.0,2,2.0,1.0,21.0,20.0,73.0,6.0,high,main_task,2.0,16.0,11.0
9121,2026,1964145,801.0,3,0.0,1.0,21.0,20.0,74.0,6.0,high,main_task,0.0,12.0,8.0
9121,2028,1966323,1171.0,3,0.0,1.0,21.0,20.0,75.0,6.0,high,main_task,0.0,12.0,9.0
9121,2030,1967870,541.0,4,2.0,1.0,21.0,20.0,76.0,6.0,high,main_task,2.0,15.0,10.0
9121,2032,1969424,548.0,6,1.0,1.0,21.0,20.0,77.0,6.0,high,main_task,1.0,13.0,11.0
9121,2034,1971082,652.0,3,0.0,1.0,21.0,20.0,78.0,6.0,high,main_task,0.0,12.0,10.0
9121,2036,1972607,518.0,6,1.0,1.0,21.0,20.0,79.0,6.0,high,main_task,1.0,13.0,12.0
9121,2038,1974361,747.0,5,0.0,1.0,21.0,20.0,80.0,6.0,high,main_task,0.0,17.0,13.0
9121,2040,1975949,582.0,2,2.0,1.0,21.0,20.0,81.0,6.0,high,main_task,2.0,16.0,12.0
9121,2042,1977503,547.0,1,1.0,1.0,21.0,20.0,82.0,6.0,high,main_task,1.0,12.0,2.0
9121,2044,1979123,613.0,5,0.0,1.0,21.0,20.0,83.0,6.0,high,main_task,0.0,17.0,14.0
9121,2046,1980760,631.0,6,1.0,1.0,21.0,20.0,84.0,6.0,high,main_task,1.0,13.0,13.0
9121,2048,1982272,505.0,2,2.0,1.0,21.0,20.0,85.0,6.0,high,main_task,2.0,16.0,13.0
9121,2050,1983804,526.0,4,2.0,1.0,21.0,20.0,86.0,6.0,high,main_task,2.0,15.0,11.0
9121,2052,1985344,534.0,4,2.0,1.0,21.0,20.0,87.0,6.0,high,main_task,2.0,15.0,12.0
9121,2054,1986891,541.0,1,1.0,1.0,21.0,20.0,88.0,6.0,high,main_task,1.0,12.0,3.0
9121,2056,1988568,671.0,3,0.0,1.0,21.0,20.0,89.0,6.0,high,main_task,0.0,12.0,11.0
9121,2058,1990207,632.0,5,0.0,1.0,21.0,20.0,90.0,6.0,high,main_task,0.0,17.0,15.0
9121,2062,1993883,421.0,1,0.0,0.0,20.0,21.0,1.0,2.0,low,main_task,2.0,17.0,0.0
9121,2064,1995218,332.0,2,0.0,0.0,20.0,21.0,2.0,2.0,low,main_task,2.0,12.0,0.0
9121,2066,1996471,246.0,1,1.0,0.0,20.0,21.0,3.0,2.0,low,main_task,2.0,17.0,0.0
9121,2068,1997786,309.0,1,1.0,0.0,20.0,21.0,4.0,2.0,low,main_task,2.0,17.0,0.0
9121,2070,1999161,369.0,2,1.0,0.0,20.0,21.0,5.0,2.0,low,main_task,2.0,12.0,0.0
9121,2072,2000484,316.0,2,2.0,1.0,20.0,21.0,6.0,2.0,low,main_task,2.0,12.0,1.0
9121,2074,2001821,329.0,1,2.0,1.0,20.0,21.0,7.0,2.0,low,main_task,2.0,17.0,1.0
9121,2076,2003319,491.0,2,2.0,1.0,20.0,21.0,8.0,2.0,low,main_task,2.0,12.0,2.0
9121,2078,2004676,351.0,2,2.0,1.0,20.0,21.0,9.0,2.0,low,main_task,2.0,12.0,3.0
9121,2080,2006031,348.0,1,2.0,1.0,20.0,21.0,10.0,2.0,low,main_task,2.0,17.0,2.0
9121,2082,2007386,348.0,2,2.0,1.0,20.0,21.0,11.0,2.0,low,main_task,2.0,12.0,4.0
9121,2084,2008712,319.0,1,2.0,1.0,20.0,21.0,12.0,2.0,low,main_task,2.0,17.0,3.0
9121,2086,2010021,302.0,1,2.0,1.0,20.0,21.0,13.0,2.0,low,main_task,2.0,17.0,4.0
9121,2088,2011291,264.0,2,2.0,1.0,20.0,21.0,14.0,2.0,low,main_task,2.0,12.0,5.0
9121,2090,2012616,319.0,2,2.0,1.0,20.0,21.0,15.0,2.0,low,main_task,2.0,12.0,6.0
9121,2092,2014039,415.0,1,2.0,1.0,20.0,21.0,16.0,2.0,low,main_task,2.0,17.0,5.0
9121,2094,2015584,534.0,2,2.0,1.0,20.0,21.0,17.0,2.0,low,main_task,2.0,12.0,7.0
9121,2096,2016958,366.0,1,2.0,1.0,20.0,21.0,18.0,2.0,low,main_task,2.0,17.0,6.0
9121,2098,2018430,463.0,1,2.0,1.0,20.0,21.0,19.0,2.0,low,main_task,2.0,17.0,7.0
9121,2100,2019813,375.0,2,2.0,1.0,20.0,21.0,20.0,2.0,low,main_task,2.0,12.0,8.0
9121,2102,2021132,311.0,2,2.0,1.0,20.0,21.0,21.0,2.0,low,main_task,2.0,12.0,9.0
9121,2104,2022470,330.0,1,2.0,1.0,20.0,21.0,22.0,2.0,low,main_task,2.0,17.0,8.0
9121,2106,2023919,441.0,2,2.0,1.0,20.0,21.0,23.0,2.0,low,main_task,2.0,12.0,10.0
9121,2108,2025278,351.0,1,2.0,1.0,20.0,21.0,24.0,2.0,low,main_task,2.0,17.0,9.0
9121,2110,2026629,344.0,1,2.0,1.0,20.0,21.0,25.0,2.0,low,main_task,2.0,17.0,10.0
9121,2112,2027932,294.0,2,2.0,1.0,20.0,21.0,26.0,2.0,low,main_task,2.0,12.0,11.0
9121,2114,2029359,420.0,1,2.0,1.0,20.0,21.0,27.0,2.0,low,main_task,2.0,17.0,11.0
9121,2116,2030745,378.0,1,2.0,1.0,20.0,21.0,28.0,2.0,low,main_task,2.0,17.0,12.0
9121,2118,2032329,577.0,2,2.0,1.0,20.0,21.0,29.0,2.0,low,main_task,2.0,12.0,12.0
9121,2120,2033907,571.0,2,2.0,0.0,20.0,21.0,30.0,2.0,low,main_task,1.0,inf,0.0
9121,2124,2039235,765.0,1,0.0,1.0,15.0,23.0,1.0,3.0,low,main_task,0.0,15.0,1.0
9121,2126,2040645,402.0,2,0.0,0.0,15.0,23.0,2.0,3.0,low,main_task,2.0,15.0,0.0
9121,2128,2042061,409.0,3,0.0,0.0,15.0,23.0,3.0,3.0,low,main_task,2.0,15.0,0.0
9121,2130,2043481,413.0,1,0.0,1.0,15.0,23.0,4.0,3.0,low,main_task,0.0,15.0,2.0
9121,2132,2044824,336.0,3,1.0,0.0,15.0,23.0,5.0,3.0,low,main_task,2.0,15.0,0.0
9121,2134,2046140,308.0,2,1.0,0.0,15.0,23.0,6.0,3.0,low,main_task,2.0,15.0,0.0
9121,2136,2047628,482.0,2,2.0,1.0,15.0,23.0,7.0,3.0,low,main_task,2.0,15.0,1.0
9121,2138,2048964,329.0,3,2.0,1.0,15.0,23.0,8.0,3.0,low,main_task,2.0,15.0,1.0
9121,2140,2050305,334.0,1,0.0,1.0,15.0,23.0,9.0,3.0,low,main_task,0.0,15.0,3.0
9121,2142,2051907,594.0,1,0.0,1.0,15.0,23.0,10.0,3.0,low,main_task,0.0,15.0,4.0
9121,2144,2053784,871.0,2,2.0,1.0,15.0,23.0,11.0,3.0,low,main_task,2.0,15.0,2.0
9121,2146,2055419,628.0,3,2.0,1.0,15.0,23.0,12.0,3.0,low,main_task,2.0,15.0,2.0
9121,2148,2056943,519.0,2,2.0,1.0,15.0,23.0,13.0,3.0,low,main_task,2.0,15.0,3.0
9121,2150,2058418,467.0,3,2.0,1.0,15.0,23.0,14.0,3.0,low,main_task,2.0,15.0,3.0
9121,2152,2059809,383.0,1,0.0,1.0,15.0,23.0,15.0,3.0,low,main_task,0.0,15.0,5.0
9121,2154,2061362,547.0,3,2.0,1.0,15.0,23.0,16.0,3.0,low,main_task,2.0,15.0,4.0
9121,2156,2062839,470.0,2,2.0,1.0,15.0,23.0,17.0,3.0,low,main_task,2.0,15.0,4.0
9121,2158,2064718,872.0,1,0.0,1.0,15.0,23.0,18.0,3.0,low,main_task,0.0,15.0,6.0
9121,2160,2066286,562.0,1,0.0,1.0,15.0,23.0,19.0,3.0,low,main_task,0.0,15.0,7.0
9121,2162,2067733,439.0,2,2.0,1.0,15.0,23.0,20.0,3.0,low,main_task,2.0,15.0,5.0
9121,2164,2069250,510.0,3,2.0,1.0,15.0,23.0,21.0,3.0,low,main_task,2.0,15.0,5.0
9121,2166,2070743,486.0,3,2.0,1.0,15.0,23.0,22.0,3.0,low,main_task,2.0,15.0,6.0
9121,2168,2072294,544.0,1,0.0,1.0,15.0,23.0,23.0,3.0,low,main_task,0.0,15.0,8.0
9121,2170,2074007,706.0,1,0.0,1.0,15.0,23.0,24.0,3.0,low,main_task,0.0,15.0,9.0
9121,2172,2075467,454.0,2,2.0,1.0,15.0,23.0,25.0,3.0,low,main_task,2.0,15.0,6.0
9121,2174,2076971,498.0,1,0.0,1.0,15.0,23.0,26.0,3.0,low,main_task,0.0,15.0,10.0
9121,2176,2078450,472.0,3,2.0,1.0,15.0,23.0,27.0,3.0,low,main_task,2.0,15.0,7.0
9121,2178,2079894,437.0,2,2.0,1.0,15.0,23.0,28.0,3.0,low,main_task,2.0,15.0,7.0
9121,2180,2081378,477.0,3,2.0,1.0,15.0,23.0,29.0,3.0,low,main_task,2.0,15.0,8.0
9121,2182,2082820,434.0,2,2.0,1.0,15.0,23.0,30.0,3.0,low,main_task,2.0,15.0,8.0
9121,2184,2084233,408.0,1,0.0,1.0,15.0,23.0,31.0,3.0,low,main_task,0.0,15.0,11.0
9121,2186,2085828,589.0,3,2.0,1.0,15.0,23.0,32.0,3.0,low,main_task,2.0,15.0,9.0
9121,2188,2087365,530.0,2,2.0,1.0,15.0,23.0,33.0,3.0,low,main_task,2.0,15.0,9.0
9121,2190,2088913,541.0,2,2.0,1.0,15.0,23.0,34.0,3.0,low,main_task,2.0,15.0,10.0
9121,2192,2090517,597.0,1,0.0,1.0,15.0,23.0,35.0,3.0,low,main_task,0.0,15.0,12.0
9121,2194,2092060,536.0,3,2.0,1.0,15.0,23.0,36.0,3.0,low,main_task,2.0,15.0,10.0
9121,2196,2094075,1008.0,3,2.0,1.0,15.0,23.0,37.0,3.0,low,main_task,2.0,15.0,11.0
9121,2198,2095576,495.0,2,2.0,1.0,15.0,23.0,38.0,3.0,low,main_task,2.0,15.0,11.0
9121,2200,2097096,514.0,3,2.0,1.0,15.0,23.0,39.0,3.0,low,main_task,2.0,15.0,12.0
9121,2202,2098628,526.0,1,0.0,1.0,15.0,23.0,40.0,3.0,low,main_task,0.0,15.0,13.0
9121,2204,2100182,546.0,2,2.0,1.0,15.0,23.0,41.0,3.0,low,main_task,2.0,15.0,12.0
9121,2206,2101870,682.0,2,2.0,1.0,15.0,23.0,42.0,3.0,low,main_task,2.0,15.0,13.0
9121,2208,2103380,502.0,1,0.0,1.0,15.0,23.0,43.0,3.0,low,main_task,0.0,15.0,14.0
9121,2210,2104823,437.0,3,2.0,1.0,15.0,23.0,44.0,3.0,low,main_task,2.0,15.0,13.0
9121,2212,2106382,552.0,1,0.0,1.0,15.0,23.0,45.0,3.0,low,main_task,0.0,15.0,15.0
