sona_id,trial_index,time_elapsed,rt,stimulus,key_press,correct,set,block,trial,set_size,load_condition,phase_type,key_answer,reversal_crit,counter
9121.0,202,318775,548.0,1,0.0,1.0,18.0,3.0,1.0,2.0,low,main_task,0.0,13.0,1.0
9121.0,204,320143,361.0,2,1.0,1.0,18.0,3.0,2.0,2.0,low,main_task,1.0,17.0,1.0
9121.0,206,321652,502.0,1,0.0,1.0,18.0,3.0,3.0,2.0,low,main_task,0.0,13.0,2.0
9121.0,208,323504,847.0,1,0.0,1.0,18.0,3.0,4.0,2.0,low,main_task,0.0,13.0,3.0
9121.0,210,325198,688.0,2,1.0,1.0,18.0,3.0,5.0,2.0,low,main_task,1.0,17.0,2.0
9121.0,212,326808,605.0,2,1.0,1.0,18.0,3.0,6.0,2.0,low,main_task,1.0,17.0,3.0
9121.0,214,328316,503.0,1,0.0,1.0,18.0,3.0,7.0,2.0,low,main_task,0.0,13.0,4.0
9121.0,216,329997,675.0,2,1.0,1.0,18.0,3.0,8.0,2.0,low,main_task,1.0,17.0,4.0
9121.0,218,331457,455.0,2,1.0,1.0,18.0,3.0,9.0,2.0,low,main_task,1.0,17.0,5.0
9121.0,220,332948,484.0,1,0.0,1.0,18.0,3.0,10.0,2.0,low,main_task,0.0,13.0,5.0
9121.0,222,334505,552.0,2,1.0,1.0,18.0,3.0,11.0,2.0,low,main_task,1.0,17.0,6.0
9121.0,224,336022,512.0,1,0.0,1.0,18.0,3.0,12.0,2.0,low,main_task,0.0,13.0,6.0
9121.0,226,337652,625.0,1,0.0,1.0,18.0,3.0,13.0,2.0,low,main_task,0.0,13.0,7.0
9121.0,228,339084,427.0,2,1.0,1.0,18.0,3.0,14.0,2.0,low,main_task,1.0,17.0,7.0
9121.0,230,340777,688.0,2,1.0,1.0,18.0,3.0,15.0,2.0,low,main_task,1.0,17.0,8.0
9121.0,232,342267,484.0,1,0.0,1.0,18.0,3.0,16.0,2.0,low,main_task,0.0,13.0,8.0
9121.0,234,343790,518.0,2,1.0,1.0,18.0,3.0,17.0,2.0,low,main_task,1.0,17.0,9.0
9121.0,236,345329,532.0,1,0.0,1.0,18.0,3.0,18.0,2.0,low,main_task,0.0,13.0,9.0
9121.0,238,347067,731.0,1,0.0,1.0,18.0,3.0,19.0,2.0,low,main_task,0.0,13.0,10.0
9121.0,240,348629,557.0,2,1.0,1.0,18.0,3.0,20.0,2.0,low,main_task,1.0,17.0,10.0
9121.0,242,350134,499.0,1,0.0,1.0,18.0,3.0,21.0,2.0,low,main_task,0.0,13.0,11.0
9121.0,244,352954,1814.0,1,0.0,1.0,18.0,3.0,22.0,2.0,low,main_task,0.0,13.0,12.0
9121.0,246,354715,757.0,2,1.0,1.0,18.0,3.0,23.0,2.0,low,main_task,1.0,17.0,11.0
9121.0,248,356390,669.0,2,1.0,1.0,18.0,3.0,24.0,2.0,low,main_task,1.0,17.0,12.0
9121.0,250,358183,786.0,1,0.0,1.0,18.0,3.0,25.0,2.0,low,main_task,0.0,13.0,13.0
9121.0,252,359393,203.0,2,1.0,1.0,18.0,3.0,26.0,2.0,low,main_task,1.0,17.0,13.0
9121.0,254,360592,195.0,1,1.0,0.0,18.0,3.0,27.0,2.0,low,main_task,2.0,inf,0.0
9121.0,256,362097,499.0,2,0.0,0.0,18.0,3.0,28.0,2.0,low,main_task,1.0,17.0,0.0
9121.0,258,364670,1568.0,2,1.0,1.0,18.0,3.0,29.0,2.0,low,main_task,1.0,17.0,1.0
9121.0,260,366053,377.0,1,0.0,0.0,18.0,3.0,30.0,2.0,low,main_task,2.0,inf,0.0
9121.0,264,372658,838.0,1,0.0,0.0,9.0,5.0,1.0,3.0,low,main_task,1.0,12.0,0.0
9121.0,266,374077,412.0,2,0.0,1.0,9.0,5.0,2.0,3.0,low,main_task,0.0,15.0,1.0
9121.0,268,375665,583.0,3,0.0,0.0,9.0,5.0,3.0,3.0,low,main_task,1.0,18.0,0.0
9121.0,270,377423,752.0,3,1.0,1.0,9.0,5.0,4.0,3.0,low,main_task,1.0,18.0,1.0
9121.0,272,379270,842.0,1,0.0,0.0,9.0,5.0,5.0,3.0,low,main_task,1.0,12.0,0.0
9121.0,274,380734,459.0,2,0.0,1.0,9.0,5.0,6.0,3.0,low,main_task,0.0,15.0,2.0
9121.0,276,382166,426.0,3,1.0,1.0,9.0,5.0,7.0,3.0,low,main_task,1.0,18.0,2.0
9121.0,278,383659,487.0,2,2.0,0.0,9.0,5.0,8.0,3.0,low,main_task,0.0,15.0,0.0
9121.0,280,385080,415.0,2,1.0,0.0,9.0,5.0,9.0,3.0,low,main_task,0.0,15.0,0.0
9121.0,282,386782,697.0,1,1.0,1.0,9.0,5.0,10.0,3.0,low,main_task,1.0,12.0,1.0
9121.0,284,388426,639.0,2,0.0,1.0,9.0,5.0,11.0,3.0,low,main_task,0.0,15.0,1.0
9121.0,286,390031,600.0,3,1.0,1.0,9.0,5.0,12.0,3.0,low,main_task,1.0,18.0,3.0
9121.0,288,391555,518.0,1,1.0,1.0,9.0,5.0,13.0,3.0,low,main_task,1.0,12.0,2.0
9121.0,290,392968,406.0,3,0.0,0.0,9.0,5.0,14.0,3.0,low,main_task,1.0,18.0,0.0
9121.0,292,394619,645.0,1,1.0,1.0,9.0,5.0,15.0,3.0,low,main_task,1.0,12.0,3.0
9121.0,294,396169,544.0,2,0.0,1.0,9.0,5.0,16.0,3.0,low,main_task,0.0,15.0,2.0
9121.0,296,397773,598.0,3,1.0,1.0,9.0,5.0,17.0,3.0,low,main_task,1.0,18.0,1.0
9121.0,298,399800,1021.0,3,1.0,1.0,9.0,5.0,18.0,3.0,low,main_task,1.0,18.0,2.0
9121.0,300,401563,757.0,1,1.0,1.0,9.0,5.0,19.0,3.0,low,main_task,1.0,12.0,4.0
9121.0,302,403226,657.0,1,1.0,1.0,9.0,5.0,20.0,3.0,low,main_task,1.0,12.0,5.0
9121.0,304,404934,702.0,2,1.0,0.0,9.0,5.0,21.0,3.0,low,main_task,0.0,15.0,0.0
9121.0,306,406559,619.0,3,1.0,1.0,9.0,5.0,22.0,3.0,low,main_task,1.0,18.0,3.0
9121.0,308,408084,519.0,1,1.0,1.0,9.0,5.0,23.0,3.0,low,main_task,1.0,12.0,6.0
9121.0,310,409476,386.0,2,0.0,1.0,9.0,5.0,24.0,3.0,low,main_task,0.0,15.0,1.0
9121.0,312,411232,751.0,2,0.0,1.0,9.0,5.0,25.0,3.0,low,main_task,0.0,15.0,2.0
9121.0,314,412657,418.0,3,1.0,1.0,9.0,5.0,26.0,3.0,low,main_task,1.0,18.0,4.0
9121.0,316,414644,982.0,1,1.0,1.0,9.0,5.0,27.0,3.0,low,main_task,1.0,12.0,7.0
9121.0,318,416101,452.0,3,1.0,1.0,9.0,5.0,28.0,3.0,low,main_task,1.0,18.0,5.0
9121.0,320,417641,535.0,1,1.0,1.0,9.0,5.0,29.0,3.0,low,main_task,1.0,12.0,8.0
9121.0,322,419172,528.0,2,0.0,1.0,9.0,5.0,30.0,3.0,low,main_task,0.0,15.0,3.0
9121.0,324,421366,1188.0,3,1.0,1.0,9.0,5.0,31.0,3.0,low,main_task,1.0,18.0,6.0
9121.0,326,422884,513.0,3,1.0,1.0,9.0,5.0,32.0,3.0,low,main_task,1.0,18.0,7.0
9121.0,328,424690,799.0,2,0.0,1.0,9.0,5.0,33.0,3.0,low,main_task,0.0,15.0,4.0
9121.0,330,426421,725.0,1,1.0,1.0,9.0,5.0,34.0,3.0,low,main_task,1.0,12.0,9.0
9121.0,332,428071,644.0,1,1.0,1.0,9.0,5.0,35.0,3.0,low,main_task,1.0,12.0,10.0
9121.0,334,429789,713.0,2,0.0,1.0,9.0,5.0,36.0,3.0,low,main_task,0.0,15.0,5.0
9121.0,336,431493,698.0,3,1.0,1.0,9.0,5.0,37.0,3.0,low,main_task,1.0,18.0,8.0
9121.0,338,433280,782.0,2,0.0,1.0,9.0,5.0,38.0,3.0,low,main_task,0.0,15.0,6.0
9121.0,340,435015,730.0,1,1.0,1.0,9.0,5.0,39.0,3.0,low,main_task,1.0,12.0,11.0
9121.0,342,437560,1539.0,1,1.0,1.0,9.0,5.0,40.0,3.0,low,main_task,1.0,12.0,12.0
9121.0,344,439074,508.0,3,1.0,1.0,9.0,5.0,41.0,3.0,low,main_task,1.0,18.0,9.0
9121.0,346,440584,503.0,2,1.0,0.0,9.0,5.0,42.0,3.0,low,main_task,0.0,15.0,0.0
9121.0,348,442127,538.0,3,1.0,1.0,9.0,5.0,43.0,3.0,low,main_task,1.0,18.0,10.0
9121.0,350,443772,639.0,2,1.0,0.0,9.0,5.0,44.0,3.0,low,main_task,0.0,15.0,0.0
9121.0,352,445320,542.0,1,1.0,0.0,9.0,5.0,45.0,3.0,low,main_task,0.0,inf,0.0
9121.0,356,492921,320.0,1,0.0,1.0,3.0,6.0,1.0,5.0,high,main_task,0.0,16.0,1.0
9121.0,358,494231,304.0,2,0.0,0.0,3.0,6.0,2.0,5.0,high,main_task,2.0,14.0,0.0
9121.0,360,495654,417.0,3,0.0,0.0,3.0,6.0,3.0,5.0,high,main_task,1.0,16.0,0.0
9121.0,362,497105,445.0,4,0.0,1.0,3.0,6.0,4.0,5.0,high,main_task,0.0,13.0,1.0
9121.0,364,498597,486.0,5,0.0,0.0,3.0,6.0,5.0,5.0,high,main_task,2.0,14.0,0.0
9121.0,366,500134,531.0,5,0.0,0.0,3.0,6.0,6.0,5.0,high,main_task,2.0,14.0,0.0
9121.0,368,501647,507.0,1,0.0,1.0,3.0,6.0,7.0,5.0,high,main_task,0.0,16.0,2.0
9121.0,370,503287,635.0,4,0.0,1.0,3.0,6.0,8.0,5.0,high,main_task,0.0,13.0,2.0
9121.0,372,504874,582.0,2,1.0,0.0,3.0,6.0,9.0,5.0,high,main_task,2.0,14.0,0.0
9121.0,374,506503,623.0,3,1.0,1.0,3.0,6.0,10.0,5.0,high,main_task,1.0,16.0,1.0
9121.0,376,508488,978.0,2,1.0,0.0,3.0,6.0,11.0,5.0,high,main_task,2.0,14.0,0.0
9121.0,378,510252,758.0,1,0.0,1.0,3.0,6.0,12.0,5.0,high,main_task,0.0,16.0,3.0
9121.0,380,511791,532.0,3,0.0,0.0,3.0,6.0,13.0,5.0,high,main_task,1.0,16.0,0.0
9121.0,382,513588,793.0,5,1.0,0.0,3.0,6.0,14.0,5.0,high,main_task,2.0,14.0,0.0
9121.0,384,514995,397.0,3,2.0,0.0,3.0,6.0,15.0,5.0,high,main_task,1.0,16.0,0.0
9121.0,386,516562,561.0,4,0.0,1.0,3.0,6.0,16.0,5.0,high,main_task,0.0,13.0,3.0
9121.0,388,518704,1136.0,5,0.0,0.0,3.0,6.0,17.0,5.0,high,main_task,2.0,14.0,0.0
9121.0,390,521711,,1,-1.0,0.0,3.0,6.0,18.0,5.0,high,main_task,0.0,16.0,0.0
9121.0,392,523063,346.0,3,0.0,0.0,3.0,6.0,19.0,5.0,high,main_task,1.0,16.0,0.0
9121.0,394,524595,526.0,2,1.0,0.0,3.0,6.0,20.0,5.0,high,main_task,2.0,14.0,0.0
9121.0,396,526147,547.0,4,1.0,0.0,3.0,6.0,21.0,5.0,high,main_task,0.0,13.0,0.0
9121.0,398,527681,528.0,4,0.0,1.0,3.0,6.0,22.0,5.0,high,main_task,0.0,13.0,1.0
9121.0,400,529583,897.0,5,0.0,0.0,3.0,6.0,23.0,5.0,high,main_task,2.0,14.0,0.0
9121.0,402,531224,634.0,2,1.0,0.0,3.0,6.0,24.0,5.0,high,main_task,2.0,14.0,0.0
9121.0,404,533137,907.0,1,2.0,0.0,3.0,6.0,25.0,5.0,high,main_task,0.0,16.0,0.0
9121.0,406,535008,866.0,1,0.0,1.0,3.0,6.0,26.0,5.0,high,main_task,0.0,16.0,1.0
9121.0,408,537254,1240.0,3,1.0,1.0,3.0,6.0,27.0,5.0,high,main_task,1.0,16.0,1.0
9121.0,410,538977,717.0,5,1.0,0.0,3.0,6.0,28.0,5.0,high,main_task,2.0,14.0,0.0
9121.0,412,540607,624.0,4,0.0,1.0,3.0,6.0,29.0,5.0,high,main_task,0.0,13.0,2.0
9121.0,414,542753,1140.0,2,1.0,0.0,3.0,6.0,30.0,5.0,high,main_task,2.0,14.0,0.0
9121.0,416,544502,743.0,5,1.0,0.0,3.0,6.0,31.0,5.0,high,main_task,2.0,14.0,0.0
9121.0,418,546742,1233.0,2,0.0,0.0,3.0,6.0,32.0,5.0,high,main_task,2.0,14.0,0.0
9121.0,420,548351,603.0,4,1.0,0.0,3.0,6.0,33.0,5.0,high,main_task,0.0,13.0,0.0
9121.0,422,549914,557.0,1,2.0,0.0,3.0,6.0,34.0,5.0,high,main_task,0.0,16.0,0.0
9121.0,424,552382,1462.0,4,1.0,0.0,3.0,6.0,35.0,5.0,high,main_task,0.0,13.0,0.0
9121.0,426,554260,872.0,3,1.0,1.0,3.0,6.0,36.0,5.0,high,main_task,1.0,16.0,2.0
9121.0,428,556804,1538.0,3,1.0,1.0,3.0,6.0,37.0,5.0,high,main_task,1.0,16.0,3.0
9121.0,430,558504,695.0,5,1.0,0.0,3.0,6.0,38.0,5.0,high,main_task,2.0,14.0,0.0
9121.0,432,560159,650.0,1,0.0,1.0,3.0,6.0,39.0,5.0,high,main_task,0.0,16.0,1.0
9121.0,434,563166,,3,-1.0,0.0,3.0,6.0,40.0,5.0,high,main_task,1.0,16.0,0.0
9121.0,436,564625,452.0,2,1.0,0.0,3.0,6.0,41.0,5.0,high,main_task,2.0,14.0,0.0
9121.0,438,567632,,2,-1.0,0.0,3.0,6.0,42.0,5.0,high,main_task,2.0,14.0,0.0
9121.0,440,568748,110.0,5,0.0,0.0,3.0,6.0,43.0,5.0,high,main_task,2.0,14.0,0.0
9121.0,442,570017,263.0,4,1.0,0.0,3.0,6.0,44.0,5.0,high,main_task,0.0,13.0,0.0
9121.0,444,571149,126.0,1,2.0,0.0,3.0,6.0,45.0,5.0,high,main_task,0.0,16.0,0.0
9121.0,446,572363,208.0,5,1.0,0.0,3.0,6.0,46.0,5.0,high,main_task,2.0,14.0,0.0
9121.0,448,573709,340.0,1,0.0,1.0,3.0,6.0,47.0,5.0,high,main_task,0.0,16.0,1.0
9121.0,450,575219,504.0,4,1.0,0.0,3.0,6.0,48.0,5.0,high,main_task,0.0,13.0,0.0
9121.0,452,576914,690.0,3,0.0,0.0,3.0,6.0,49.0,5.0,high,main_task,1.0,16.0,0.0
9121.0,454,579428,1508.0,2,1.0,0.0,3.0,6.0,50.0,5.0,high,main_task,2.0,14.0,0.0
9121.0,456,581397,963.0,5,2.0,1.0,3.0,6.0,51.0,5.0,high,main_task,2.0,14.0,1.0
9121.0,458,582985,581.0,3,1.0,1.0,3.0,6.0,52.0,5.0,high,main_task,1.0,16.0,1.0
9121.0,460,585540,1550.0,1,1.0,0.0,3.0,6.0,53.0,5.0,high,main_task,0.0,16.0,0.0
9121.0,462,586811,265.0,2,0.0,0.0,3.0,6.0,54.0,5.0,high,main_task,2.0,14.0,0.0
9121.0,464,588761,944.0,4,2.0,0.0,3.0,6.0,55.0,5.0,high,main_task,0.0,13.0,0.0
9121.0,466,590128,361.0,4,2.0,0.0,3.0,6.0,56.0,5.0,high,main_task,0.0,13.0,0.0
9121.0,468,591491,358.0,2,1.0,0.0,3.0,6.0,57.0,5.0,high,main_task,2.0,14.0,0.0
9121.0,470,593325,829.0,3,0.0,0.0,3.0,6.0,58.0,5.0,high,main_task,1.0,16.0,0.0
9121.0,472,594527,196.0,5,1.0,0.0,3.0,6.0,59.0,5.0,high,main_task,2.0,14.0,0.0
9121.0,474,596364,830.0,1,0.0,1.0,3.0,6.0,60.0,5.0,high,main_task,0.0,16.0,1.0
9121.0,476,597957,588.0,5,2.0,1.0,3.0,6.0,61.0,5.0,high,main_task,2.0,14.0,1.0
9121.0,478,599559,595.0,3,1.0,1.0,3.0,6.0,62.0,5.0,high,main_task,1.0,16.0,1.0
9121.0,480,601032,467.0,3,1.0,1.0,3.0,6.0,63.0,5.0,high,main_task,1.0,16.0,2.0
9121.0,482,603128,1091.0,4,1.0,0.0,3.0,6.0,64.0,5.0,high,main_task,0.0,13.0,0.0
9121.0,484,605740,1606.0,1,0.0,1.0,3.0,6.0,65.0,5.0,high,main_task,0.0,16.0,2.0
9121.0,486,607444,697.0,2,0.0,0.0,3.0,6.0,66.0,5.0,high,main_task,2.0,14.0,0.0
9121.0,488,608965,516.0,1,0.0,1.0,3.0,6.0,67.0,5.0,high,main_task,0.0,16.0,3.0
9121.0,490,610619,648.0,4,0.0,1.0,3.0,6.0,68.0,5.0,high,main_task,0.0,13.0,1.0
9121.0,492,612186,562.0,2,0.0,0.0,3.0,6.0,69.0,5.0,high,main_task,2.0,14.0,0.0
9121.0,494,613727,537.0,5,2.0,1.0,3.0,6.0,70.0,5.0,high,main_task,2.0,14.0,2.0
9121.0,496,615487,755.0,5,2.0,1.0,3.0,6.0,71.0,5.0,high,main_task,2.0,14.0,3.0
9121.0,498,617200,709.0,3,1.0,1.0,3.0,6.0,72.0,5.0,high,main_task,1.0,16.0,3.0
9121.0,500,618927,725.0,4,1.0,0.0,3.0,6.0,73.0,5.0,high,main_task,0.0,13.0,0.0
9121.0,502,620574,641.0,1,0.0,1.0,3.0,6.0,74.0,5.0,high,main_task,0.0,16.0,4.0
9121.0,504,622303,725.0,2,2.0,1.0,3.0,6.0,75.0,5.0,high,main_task,2.0,14.0,1.0
9121.0,508,628873,351.0,1,0.0,0.0,14.0,7.0,1.0,6.0,high,main_task,2.0,18.0,0.0
9121.0,510,630328,448.0,2,0.0,0.0,14.0,7.0,2.0,6.0,high,main_task,2.0,17.0,0.0
9121.0,512,631838,503.0,3,0.0,0.0,14.0,7.0,3.0,6.0,high,main_task,2.0,14.0,0.0
9121.0,514,633279,435.0,4,0.0,1.0,14.0,7.0,4.0,6.0,high,main_task,0.0,13.0,1.0
9121.0,516,634882,597.0,5,0.0,0.0,14.0,7.0,5.0,6.0,high,main_task,2.0,18.0,0.0
9121.0,518,636438,549.0,6,0.0,1.0,14.0,7.0,6.0,6.0,high,main_task,0.0,15.0,1.0
9121.0,520,637934,491.0,6,0.0,1.0,14.0,7.0,7.0,6.0,high,main_task,0.0,15.0,2.0
9121.0,522,639607,667.0,3,1.0,0.0,14.0,7.0,8.0,6.0,high,main_task,2.0,14.0,0.0
9121.0,524,641251,639.0,1,0.0,0.0,14.0,7.0,9.0,6.0,high,main_task,2.0,18.0,0.0
9121.0,526,643736,1479.0,4,0.0,1.0,14.0,7.0,10.0,6.0,high,main_task,0.0,13.0,2.0
9121.0,528,645297,554.0,2,0.0,0.0,14.0,7.0,11.0,6.0,high,main_task,2.0,17.0,0.0
9121.0,530,646975,673.0,5,0.0,0.0,14.0,7.0,12.0,6.0,high,main_task,2.0,18.0,0.0
9121.0,532,648807,826.0,4,0.0,1.0,14.0,7.0,13.0,6.0,high,main_task,0.0,13.0,3.0
9121.0,534,650559,746.0,5,1.0,0.0,14.0,7.0,14.0,6.0,high,main_task,2.0,18.0,0.0
9121.0,536,652423,859.0,2,0.0,0.0,14.0,7.0,15.0,6.0,high,main_task,2.0,17.0,0.0
9121.0,538,654284,854.0,3,1.0,0.0,14.0,7.0,16.0,6.0,high,main_task,2.0,14.0,0.0
9121.0,540,655936,646.0,6,0.0,1.0,14.0,7.0,17.0,6.0,high,main_task,0.0,15.0,3.0
9121.0,542,657729,787.0,1,1.0,0.0,14.0,7.0,18.0,6.0,high,main_task,2.0,18.0,0.0
9121.0,544,659486,751.0,5,1.0,0.0,14.0,7.0,19.0,6.0,high,main_task,2.0,18.0,0.0
9121.0,546,660971,479.0,1,2.0,1.0,14.0,7.0,20.0,6.0,high,main_task,2.0,18.0,1.0
9121.0,548,662648,671.0,2,2.0,1.0,14.0,7.0,21.0,6.0,high,main_task,2.0,17.0,1.0
9121.0,550,664250,597.0,6,0.0,1.0,14.0,7.0,22.0,6.0,high,main_task,0.0,15.0,4.0
9121.0,552,665756,500.0,4,0.0,1.0,14.0,7.0,23.0,6.0,high,main_task,0.0,13.0,4.0
9121.0,554,667181,420.0,2,2.0,1.0,14.0,7.0,24.0,6.0,high,main_task,2.0,17.0,2.0
9121.0,556,668654,466.0,3,2.0,1.0,14.0,7.0,25.0,6.0,high,main_task,2.0,14.0,1.0
9121.0,558,670158,498.0,5,2.0,1.0,14.0,7.0,26.0,6.0,high,main_task,2.0,18.0,1.0
9121.0,560,671730,567.0,4,2.0,0.0,14.0,7.0,27.0,6.0,high,main_task,0.0,13.0,0.0
9121.0,562,673297,562.0,3,2.0,1.0,14.0,7.0,28.0,6.0,high,main_task,2.0,14.0,2.0
9121.0,564,674703,400.0,6,0.0,1.0,14.0,7.0,29.0,6.0,high,main_task,0.0,15.0,5.0
9121.0,566,676274,565.0,6,0.0,1.0,14.0,7.0,30.0,6.0,high,main_task,0.0,15.0,6.0
9121.0,568,677872,593.0,1,2.0,1.0,14.0,7.0,31.0,6.0,high,main_task,2.0,18.0,2.0
9121.0,570,679436,557.0,5,2.0,1.0,14.0,7.0,32.0,6.0,high,main_task,2.0,18.0,2.0
9121.0,572,681026,582.0,1,2.0,1.0,14.0,7.0,33.0,6.0,high,main_task,2.0,18.0,3.0
9121.0,574,682659,627.0,2,2.0,1.0,14.0,7.0,34.0,6.0,high,main_task,2.0,17.0,3.0
9121.0,576,684075,410.0,4,0.0,1.0,14.0,7.0,35.0,6.0,high,main_task,0.0,13.0,1.0
9121.0,578,685602,521.0,3,2.0,1.0,14.0,7.0,36.0,6.0,high,main_task,2.0,14.0,3.0
9121.0,580,687299,692.0,3,0.0,0.0,14.0,7.0,37.0,6.0,high,main_task,2.0,14.0,0.0
9121.0,582,688955,650.0,2,2.0,1.0,14.0,7.0,38.0,6.0,high,main_task,2.0,17.0,4.0
9121.0,584,690632,671.0,6,0.0,1.0,14.0,7.0,39.0,6.0,high,main_task,0.0,15.0,7.0
9121.0,586,692184,546.0,1,2.0,1.0,14.0,7.0,40.0,6.0,high,main_task,2.0,18.0,4.0
9121.0,588,693922,734.0,4,0.0,1.0,14.0,7.0,41.0,6.0,high,main_task,0.0,13.0,2.0
9121.0,590,695442,514.0,5,2.0,1.0,14.0,7.0,42.0,6.0,high,main_task,2.0,18.0,3.0
9121.0,592,698447,,5,-1.0,0.0,14.0,7.0,43.0,6.0,high,main_task,2.0,18.0,0.0
9121.0,594,700366,913.0,1,2.0,1.0,14.0,7.0,44.0,6.0,high,main_task,2.0,18.0,5.0
9121.0,596,701841,470.0,4,0.0,1.0,14.0,7.0,45.0,6.0,high,main_task,0.0,13.0,3.0
9121.0,598,703348,500.0,2,2.0,1.0,14.0,7.0,46.0,6.0,high,main_task,2.0,17.0,5.0
9121.0,600,704899,544.0,3,2.0,1.0,14.0,7.0,47.0,6.0,high,main_task,2.0,14.0,1.0
9121.0,602,706536,630.0,4,0.0,1.0,14.0,7.0,48.0,6.0,high,main_task,0.0,13.0,4.0
9121.0,604,708140,597.0,1,2.0,1.0,14.0,7.0,49.0,6.0,high,main_task,2.0,18.0,6.0
9121.0,606,710134,989.0,6,2.0,0.0,14.0,7.0,50.0,6.0,high,main_task,0.0,15.0,0.0
9121.0,608,711788,649.0,6,2.0,0.0,14.0,7.0,51.0,6.0,high,main_task,0.0,15.0,0.0
9121.0,610,713349,554.0,5,2.0,1.0,14.0,7.0,52.0,6.0,high,main_task,2.0,18.0,1.0
9121.0,612,715224,868.0,6,0.0,1.0,14.0,7.0,53.0,6.0,high,main_task,0.0,15.0,1.0
9121.0,614,717039,809.0,3,2.0,1.0,14.0,7.0,54.0,6.0,high,main_task,2.0,14.0,2.0
9121.0,616,718888,844.0,5,2.0,1.0,14.0,7.0,55.0,6.0,high,main_task,2.0,18.0,2.0
9121.0,618,720628,734.0,3,2.0,1.0,14.0,7.0,56.0,6.0,high,main_task,2.0,14.0,3.0
9121.0,620,721759,125.0,2,2.0,1.0,14.0,7.0,57.0,6.0,high,main_task,2.0,17.0,6.0
9121.0,622,723250,484.0,4,2.0,0.0,14.0,7.0,58.0,6.0,high,main_task,0.0,13.0,0.0
9121.0,624,724716,462.0,2,2.0,1.0,14.0,7.0,59.0,6.0,high,main_task,2.0,17.0,7.0
9121.0,626,727096,1375.0,1,2.0,1.0,14.0,7.0,60.0,6.0,high,main_task,2.0,18.0,7.0
9121.0,628,728612,509.0,3,2.0,1.0,14.0,7.0,61.0,6.0,high,main_task,2.0,14.0,4.0
9121.0,630,730007,390.0,6,2.0,0.0,14.0,7.0,62.0,6.0,high,main_task,0.0,15.0,0.0
9121.0,632,731463,450.0,2,2.0,1.0,14.0,7.0,63.0,6.0,high,main_task,2.0,17.0,8.0
9121.0,634,733045,575.0,4,2.0,0.0,14.0,7.0,64.0,6.0,high,main_task,0.0,13.0,0.0
9121.0,636,734697,647.0,1,2.0,1.0,14.0,7.0,65.0,6.0,high,main_task,2.0,18.0,8.0
9121.0,638,736245,541.0,5,2.0,1.0,14.0,7.0,66.0,6.0,high,main_task,2.0,18.0,3.0
9121.0,640,737798,547.0,4,0.0,1.0,14.0,7.0,67.0,6.0,high,main_task,0.0,13.0,1.0
9121.0,642,739253,449.0,3,2.0,1.0,14.0,7.0,68.0,6.0,high,main_task,2.0,14.0,5.0
9121.0,644,740785,526.0,2,2.0,1.0,14.0,7.0,69.0,6.0,high,main_task,2.0,17.0,9.0
9121.0,646,742399,608.0,6,0.0,1.0,14.0,7.0,70.0,6.0,high,main_task,0.0,15.0,1.0
9121.0,648,744252,847.0,1,2.0,1.0,14.0,7.0,71.0,6.0,high,main_task,2.0,18.0,9.0
9121.0,650,745754,496.0,1,2.0,1.0,14.0,7.0,72.0,6.0,high,main_task,2.0,18.0,10.0
9121.0,652,747292,532.0,5,2.0,1.0,14.0,7.0,73.0,6.0,high,main_task,2.0,18.0,4.0
9121.0,654,748853,555.0,2,2.0,1.0,14.0,7.0,74.0,6.0,high,main_task,2.0,17.0,10.0
9121.0,656,750479,619.0,5,2.0,1.0,14.0,7.0,75.0,6.0,high,main_task,2.0,18.0,5.0
9121.0,658,752105,621.0,4,0.0,1.0,14.0,7.0,76.0,6.0,high,main_task,0.0,13.0,2.0
9121.0,660,753756,645.0,4,0.0,1.0,14.0,7.0,77.0,6.0,high,main_task,0.0,13.0,3.0
9121.0,662,755279,519.0,6,0.0,1.0,14.0,7.0,78.0,6.0,high,main_task,0.0,15.0,2.0
9121.0,664,756830,545.0,3,2.0,1.0,14.0,7.0,79.0,6.0,high,main_task,2.0,14.0,6.0
9121.0,666,758394,558.0,1,2.0,1.0,14.0,7.0,80.0,6.0,high,main_task,2.0,18.0,11.0
9121.0,668,760137,737.0,6,0.0,1.0,14.0,7.0,81.0,6.0,high,main_task,0.0,15.0,3.0
9121.0,670,761696,552.0,3,2.0,1.0,14.0,7.0,82.0,6.0,high,main_task,2.0,14.0,7.0
9121.0,672,763206,503.0,2,2.0,1.0,14.0,7.0,83.0,6.0,high,main_task,2.0,17.0,11.0
9121.0,674,764741,529.0,1,2.0,1.0,14.0,7.0,84.0,6.0,high,main_task,2.0,18.0,12.0
9121.0,676,766332,585.0,5,2.0,1.0,14.0,7.0,85.0,6.0,high,main_task,2.0,18.0,6.0
9121.0,678,768001,664.0,6,0.0,1.0,14.0,7.0,86.0,6.0,high,main_task,0.0,15.0,4.0
9121.0,680,769487,480.0,5,2.0,1.0,14.0,7.0,87.0,6.0,high,main_task,2.0,18.0,7.0
9121.0,682,771181,688.0,4,2.0,0.0,14.0,7.0,88.0,6.0,high,main_task,0.0,13.0,0.0
9121.0,684,772796,610.0,3,2.0,1.0,14.0,7.0,89.0,6.0,high,main_task,2.0,14.0,8.0
9121.0,686,774662,859.0,3,2.0,1.0,14.0,7.0,90.0,6.0,high,main_task,2.0,14.0,9.0
9121.0,690,784626,527.0,1,0.0,0.0,19.0,8.0,1.0,2.0,low,main_task,1.0,16.0,0.0
9121.0,692,785938,305.0,2,0.0,0.0,19.0,8.0,2.0,2.0,low,main_task,2.0,16.0,0.0
9121.0,694,787250,307.0,1,1.0,1.0,19.0,8.0,3.0,2.0,low,main_task,1.0,16.0,1.0
9121.0,696,788942,685.0,2,2.0,1.0,19.0,8.0,4.0,2.0,low,main_task,2.0,16.0,1.0
9121.0,698,791048,1100.0,2,2.0,1.0,19.0,8.0,5.0,2.0,low,main_task,2.0,16.0,2.0
9121.0,700,792634,580.0,1,1.0,1.0,19.0,8.0,6.0,2.0,low,main_task,1.0,16.0,2.0
9121.0,702,794302,662.0,1,1.0,1.0,19.0,8.0,7.0,2.0,low,main_task,1.0,16.0,3.0
9121.0,704,795857,551.0,2,2.0,1.0,19.0,8.0,8.0,2.0,low,main_task,2.0,16.0,3.0
9121.0,706,797428,565.0,2,1.0,0.0,19.0,8.0,9.0,2.0,low,main_task,2.0,16.0,0.0
9121.0,708,799039,607.0,1,1.0,1.0,19.0,8.0,10.0,2.0,low,main_task,1.0,16.0,4.0
9121.0,710,800436,391.0,2,2.0,1.0,19.0,8.0,11.0,2.0,low,main_task,2.0,16.0,1.0
9121.0,712,801981,539.0,1,1.0,1.0,19.0,8.0,12.0,2.0,low,main_task,1.0,16.0,5.0
9121.0,714,803507,520.0,1,2.0,0.0,19.0,8.0,13.0,2.0,low,main_task,1.0,16.0,0.0
9121.0,716,804803,290.0,2,2.0,1.0,19.0,8.0,14.0,2.0,low,main_task,2.0,16.0,2.0
9121.0,718,806347,538.0,1,1.0,1.0,19.0,8.0,15.0,2.0,low,main_task,1.0,16.0,1.0
9121.0,720,807842,489.0,1,1.0,1.0,19.0,8.0,16.0,2.0,low,main_task,1.0,16.0,2.0
9121.0,722,809296,449.0,2,2.0,1.0,19.0,8.0,17.0,2.0,low,main_task,2.0,16.0,3.0
9121.0,724,810789,487.0,2,2.0,1.0,19.0,8.0,18.0,2.0,low,main_task,2.0,16.0,4.0
9121.0,726,812307,513.0,1,1.0,1.0,19.0,8.0,19.0,2.0,low,main_task,1.0,16.0,3.0
9121.0,728,813814,500.0,2,2.0,1.0,19.0,8.0,20.0,2.0,low,main_task,2.0,16.0,5.0
9121.0,730,815293,474.0,1,1.0,1.0,19.0,8.0,21.0,2.0,low,main_task,1.0,16.0,4.0
9121.0,732,816725,426.0,2,2.0,1.0,19.0,8.0,22.0,2.0,low,main_task,2.0,16.0,6.0
9121.0,734,818229,499.0,2,2.0,1.0,19.0,8.0,23.0,2.0,low,main_task,2.0,16.0,7.0
9121.0,736,819682,447.0,1,1.0,1.0,19.0,8.0,24.0,2.0,low,main_task,1.0,16.0,5.0
9121.0,738,821440,751.0,1,1.0,1.0,19.0,8.0,25.0,2.0,low,main_task,1.0,16.0,6.0
9121.0,740,823048,603.0,2,2.0,1.0,19.0,8.0,26.0,2.0,low,main_task,2.0,16.0,8.0
9121.0,742,824500,446.0,2,1.0,0.0,19.0,8.0,27.0,2.0,low,main_task,2.0,16.0,0.0
9121.0,744,826051,544.0,1,1.0,1.0,19.0,8.0,28.0,2.0,low,main_task,1.0,16.0,7.0
9121.0,746,827482,425.0,2,2.0,1.0,19.0,8.0,29.0,2.0,low,main_task,2.0,16.0,1.0
9121.0,748,829017,528.0,1,1.0,1.0,19.0,8.0,30.0,2.0,low,main_task,1.0,16.0,8.0
9121.0,752,861898,614.0,1,0.0,1.0,1.0,10.0,1.0,3.0,low,main_task,0.0,17.0,1.0
9121.0,754,863335,430.0,2,0.0,0.0,1.0,10.0,2.0,3.0,low,main_task,2.0,18.0,0.0
9121.0,756,864733,393.0,3,0.0,0.0,1.0,10.0,3.0,3.0,low,main_task,1.0,13.0,0.0
9121.0,758,866307,568.0,2,1.0,0.0,1.0,10.0,4.0,3.0,low,main_task,2.0,18.0,0.0
9121.0,760,867816,505.0,1,0.0,1.0,1.0,10.0,5.0,3.0,low,main_task,0.0,17.0,2.0
9121.0,762,869447,627.0,3,1.0,1.0,1.0,10.0,6.0,3.0,low,main_task,1.0,13.0,1.0
9121.0,764,871011,560.0,3,1.0,1.0,1.0,10.0,7.0,3.0,low,main_task,1.0,13.0,2.0
9121.0,766,872528,512.0,1,0.0,1.0,1.0,10.0,8.0,3.0,low,main_task,0.0,17.0,3.0
9121.0,768,874334,799.0,2,2.0,1.0,1.0,10.0,9.0,3.0,low,main_task,2.0,18.0,1.0
9121.0,770,875943,605.0,1,0.0,1.0,1.0,10.0,10.0,3.0,low,main_task,0.0,17.0,4.0
9121.0,772,877423,474.0,3,1.0,1.0,1.0,10.0,11.0,3.0,low,main_task,1.0,13.0,3.0
9121.0,774,878805,376.0,2,2.0,1.0,1.0,10.0,12.0,3.0,low,main_task,2.0,18.0,2.0
9121.0,776,880448,637.0,2,2.0,1.0,1.0,10.0,13.0,3.0,low,main_task,2.0,18.0,3.0
9121.0,778,881976,524.0,1,0.0,1.0,1.0,10.0,14.0,3.0,low,main_task,0.0,17.0,5.0
9121.0,780,883549,567.0,1,0.0,1.0,1.0,10.0,15.0,3.0,low,main_task,0.0,17.0,6.0
9121.0,782,885434,880.0,3,1.0,1.0,1.0,10.0,16.0,3.0,low,main_task,1.0,13.0,4.0
9121.0,784,887215,775.0,1,0.0,1.0,1.0,10.0,17.0,3.0,low,main_task,0.0,17.0,7.0
9121.0,786,888816,597.0,2,1.0,0.0,1.0,10.0,18.0,3.0,low,main_task,2.0,18.0,0.0
9121.0,788,890883,1061.0,3,1.0,1.0,1.0,10.0,19.0,3.0,low,main_task,1.0,13.0,5.0
9121.0,790,892703,813.0,2,2.0,1.0,1.0,10.0,20.0,3.0,low,main_task,2.0,18.0,1.0
9121.0,792,894860,1150.0,2,2.0,1.0,1.0,10.0,21.0,3.0,low,main_task,2.0,18.0,2.0
9121.0,794,896350,484.0,1,0.0,1.0,1.0,10.0,22.0,3.0,low,main_task,0.0,17.0,8.0
9121.0,796,898039,683.0,3,1.0,1.0,1.0,10.0,23.0,3.0,low,main_task,1.0,13.0,6.0
9121.0,798,899642,597.0,3,1.0,1.0,1.0,10.0,24.0,3.0,low,main_task,1.0,13.0,7.0
9121.0,800,901223,574.0,1,0.0,1.0,1.0,10.0,25.0,3.0,low,main_task,0.0,17.0,9.0
9121.0,802,903629,1402.0,2,1.0,0.0,1.0,10.0,26.0,3.0,low,main_task,2.0,18.0,0.0
9121.0,804,905202,565.0,1,0.0,1.0,1.0,10.0,27.0,3.0,low,main_task,0.0,17.0,10.0
9121.0,806,906765,558.0,3,1.0,1.0,1.0,10.0,28.0,3.0,low,main_task,1.0,13.0,8.0
9121.0,808,908258,487.0,3,1.0,1.0,1.0,10.0,29.0,3.0,low,main_task,1.0,13.0,9.0
9121.0,810,909715,452.0,2,2.0,1.0,1.0,10.0,30.0,3.0,low,main_task,2.0,18.0,1.0
9121.0,812,911395,674.0,3,1.0,1.0,1.0,10.0,31.0,3.0,low,main_task,1.0,13.0,10.0
9121.0,814,912900,499.0,1,0.0,1.0,1.0,10.0,32.0,3.0,low,main_task,0.0,17.0,11.0
9121.0,816,914517,611.0,2,2.0,1.0,1.0,10.0,33.0,3.0,low,main_task,2.0,18.0,2.0
9121.0,818,916131,608.0,3,1.0,1.0,1.0,10.0,34.0,3.0,low,main_task,1.0,13.0,11.0
9121.0,820,917766,629.0,2,2.0,1.0,1.0,10.0,35.0,3.0,low,main_task,2.0,18.0,3.0
9121.0,822,919309,538.0,1,0.0,1.0,1.0,10.0,36.0,3.0,low,main_task,0.0,17.0,12.0
9121.0,824,920830,515.0,1,0.0,1.0,1.0,10.0,37.0,3.0,low,main_task,0.0,17.0,13.0
9121.0,826,922433,596.0,2,2.0,1.0,1.0,10.0,38.0,3.0,low,main_task,2.0,18.0,4.0
9121.0,828,924066,626.0,3,1.0,1.0,1.0,10.0,39.0,3.0,low,main_task,1.0,13.0,12.0
9121.0,830,925573,502.0,3,1.0,1.0,1.0,10.0,40.0,3.0,low,main_task,1.0,13.0,13.0
9121.0,832,927255,678.0,1,0.0,1.0,1.0,10.0,41.0,3.0,low,main_task,0.0,17.0,14.0
9121.0,834,929135,876.0,2,2.0,1.0,1.0,10.0,42.0,3.0,low,main_task,2.0,18.0,5.0
9121.0,836,930704,565.0,1,0.0,1.0,1.0,10.0,43.0,3.0,low,main_task,0.0,17.0,15.0
9121.0,838,932565,858.0,2,2.0,1.0,1.0,10.0,44.0,3.0,low,main_task,2.0,18.0,6.0
9121.0,840,934111,541.0,3,1.0,0.0,1.0,10.0,45.0,3.0,low,main_task,0.0,inf,0.0
9121.0,844,944973,1160.0,1,0.0,0.0,10.0,11.0,1.0,6.0,high,main_task,2.0,13.0,0.0
9121.0,846,946311,333.0,2,0.0,0.0,10.0,11.0,2.0,6.0,high,main_task,2.0,15.0,0.0
9121.0,848,947773,455.0,3,0.0,0.0,10.0,11.0,3.0,6.0,high,main_task,2.0,13.0,0.0
9121.0,850,949206,427.0,4,0.0,1.0,10.0,11.0,4.0,6.0,high,main_task,0.0,14.0,1.0
9121.0,852,950767,556.0,5,0.0,0.0,10.0,11.0,5.0,6.0,high,main_task,1.0,14.0,0.0
9121.0,854,952282,509.0,6,0.0,0.0,10.0,11.0,6.0,6.0,high,main_task,1.0,13.0,0.0
9121.0,856,953800,513.0,5,1.0,1.0,10.0,11.0,7.0,6.0,high,main_task,1.0,14.0,1.0
9121.0,858,955460,655.0,4,1.0,0.0,10.0,11.0,8.0,6.0,high,main_task,0.0,14.0,0.0
9121.0,860,956975,509.0,2,1.0,0.0,10.0,11.0,9.0,6.0,high,main_task,2.0,15.0,0.0
9121.0,862,958372,391.0,1,1.0,0.0,10.0,11.0,10.0,6.0,high,main_task,2.0,13.0,0.0
9121.0,864,959844,466.0,3,1.0,0.0,10.0,11.0,11.0,6.0,high,main_task,2.0,13.0,0.0
9121.0,866,961482,632.0,6,1.0,1.0,10.0,11.0,12.0,6.0,high,main_task,1.0,13.0,1.0
9121.0,868,963490,1001.0,1,2.0,1.0,10.0,11.0,13.0,6.0,high,main_task,2.0,13.0,1.0
9121.0,870,965276,780.0,2,2.0,1.0,10.0,11.0,14.0,6.0,high,main_task,2.0,15.0,1.0
9121.0,872,967648,1365.0,3,2.0,1.0,10.0,11.0,15.0,6.0,high,main_task,2.0,13.0,1.0
9121.0,874,969511,858.0,5,1.0,1.0,10.0,11.0,16.0,6.0,high,main_task,1.0,14.0,2.0
9121.0,876,971070,552.0,5,1.0,1.0,10.0,11.0,17.0,6.0,high,main_task,1.0,14.0,3.0
9121.0,878,972852,776.0,4,2.0,0.0,10.0,11.0,18.0,6.0,high,main_task,0.0,14.0,0.0
9121.0,880,974601,741.0,6,1.0,1.0,10.0,11.0,19.0,6.0,high,main_task,1.0,13.0,2.0
9121.0,882,976218,610.0,3,1.0,0.0,10.0,11.0,20.0,6.0,high,main_task,2.0,13.0,0.0
9121.0,884,977843,620.0,1,2.0,1.0,10.0,11.0,21.0,6.0,high,main_task,2.0,13.0,2.0
9121.0,886,979656,807.0,6,1.0,1.0,10.0,11.0,22.0,6.0,high,main_task,1.0,13.0,3.0
9121.0,888,981318,656.0,1,2.0,1.0,10.0,11.0,23.0,6.0,high,main_task,2.0,13.0,3.0
9121.0,890,983008,684.0,2,2.0,1.0,10.0,11.0,24.0,6.0,high,main_task,2.0,15.0,2.0
9121.0,892,984507,492.0,4,0.0,1.0,10.0,11.0,25.0,6.0,high,main_task,0.0,14.0,1.0
9121.0,894,986327,814.0,3,2.0,1.0,10.0,11.0,26.0,6.0,high,main_task,2.0,13.0,1.0
9121.0,896,988026,694.0,3,2.0,1.0,10.0,11.0,27.0,6.0,high,main_task,2.0,13.0,2.0
9121.0,898,989566,533.0,5,1.0,1.0,10.0,11.0,28.0,6.0,high,main_task,1.0,14.0,4.0
9121.0,900,991454,882.0,4,0.0,1.0,10.0,11.0,29.0,6.0,high,main_task,0.0,14.0,2.0
9121.0,902,992965,506.0,2,2.0,1.0,10.0,11.0,30.0,6.0,high,main_task,2.0,15.0,3.0
9121.0,904,994770,799.0,6,1.0,1.0,10.0,11.0,31.0,6.0,high,main_task,1.0,13.0,4.0
9121.0,906,996345,570.0,2,2.0,1.0,10.0,11.0,32.0,6.0,high,main_task,2.0,15.0,4.0
9121.0,908,998003,650.0,1,2.0,1.0,10.0,11.0,33.0,6.0,high,main_task,2.0,13.0,4.0
9121.0,910,999549,539.0,4,0.0,1.0,10.0,11.0,34.0,6.0,high,main_task,0.0,14.0,3.0
9121.0,912,1001053,500.0,2,2.0,1.0,10.0,11.0,35.0,6.0,high,main_task,2.0,15.0,5.0
9121.0,914,1002843,784.0,5,1.0,1.0,10.0,11.0,36.0,6.0,high,main_task,1.0,14.0,5.0
9121.0,916,1004374,525.0,6,1.0,1.0,10.0,11.0,37.0,6.0,high,main_task,1.0,13.0,5.0
9121.0,918,1006057,677.0,3,2.0,1.0,10.0,11.0,38.0,6.0,high,main_task,2.0,13.0,3.0
9121.0,920,1008362,1299.0,6,1.0,1.0,10.0,11.0,39.0,6.0,high,main_task,1.0,13.0,6.0
9121.0,922,1009895,528.0,6,1.0,1.0,10.0,11.0,40.0,6.0,high,main_task,1.0,13.0,7.0
9121.0,924,1011477,576.0,4,0.0,1.0,10.0,11.0,41.0,6.0,high,main_task,0.0,14.0,4.0
9121.0,926,1013010,528.0,1,1.0,0.0,10.0,11.0,42.0,6.0,high,main_task,2.0,13.0,0.0
9121.0,928,1014569,553.0,3,2.0,1.0,10.0,11.0,43.0,6.0,high,main_task,2.0,13.0,4.0
9121.0,930,1016175,599.0,5,1.0,1.0,10.0,11.0,44.0,6.0,high,main_task,1.0,14.0,6.0
9121.0,932,1018509,1328.0,1,2.0,1.0,10.0,11.0,45.0,6.0,high,main_task,2.0,13.0,1.0
9121.0,934,1019992,478.0,2,2.0,1.0,10.0,11.0,46.0,6.0,high,main_task,2.0,15.0,6.0
9121.0,936,1021571,573.0,3,2.0,1.0,10.0,11.0,47.0,6.0,high,main_task,2.0,13.0,5.0
9121.0,938,1023116,538.0,4,0.0,1.0,10.0,11.0,48.0,6.0,high,main_task,0.0,14.0,5.0
9121.0,940,1024846,725.0,4,0.0,1.0,10.0,11.0,49.0,6.0,high,main_task,0.0,14.0,6.0
9121.0,942,1026599,747.0,6,1.0,1.0,10.0,11.0,50.0,6.0,high,main_task,1.0,13.0,8.0
9121.0,944,1028130,525.0,1,2.0,1.0,10.0,11.0,51.0,6.0,high,main_task,2.0,13.0,2.0
9121.0,946,1029807,669.0,5,1.0,1.0,10.0,11.0,52.0,6.0,high,main_task,1.0,14.0,7.0
9121.0,948,1032207,1394.0,5,1.0,1.0,10.0,11.0,53.0,6.0,high,main_task,1.0,14.0,8.0
9121.0,950,1033759,546.0,4,0.0,1.0,10.0,11.0,54.0,6.0,high,main_task,0.0,14.0,7.0
9121.0,952,1035618,853.0,2,2.0,1.0,10.0,11.0,55.0,6.0,high,main_task,2.0,15.0,7.0
9121.0,954,1037182,558.0,5,1.0,1.0,10.0,11.0,56.0,6.0,high,main_task,1.0,14.0,9.0
9121.0,956,1038767,579.0,2,2.0,1.0,10.0,11.0,57.0,6.0,high,main_task,2.0,15.0,8.0
9121.0,958,1040971,1197.0,3,2.0,1.0,10.0,11.0,58.0,6.0,high,main_task,2.0,13.0,6.0
9121.0,960,1042703,725.0,6,1.0,1.0,10.0,11.0,59.0,6.0,high,main_task,1.0,13.0,9.0
9121.0,962,1044168,459.0,5,1.0,1.0,10.0,11.0,60.0,6.0,high,main_task,1.0,14.0,10.0
9121.0,964,1045639,464.0,1,2.0,1.0,10.0,11.0,61.0,6.0,high,main_task,2.0,13.0,3.0
9121.0,966,1047177,531.0,6,0.0,0.0,10.0,11.0,62.0,6.0,high,main_task,1.0,13.0,0.0
9121.0,968,1048794,611.0,3,2.0,1.0,10.0,11.0,63.0,6.0,high,main_task,2.0,13.0,7.0
9121.0,970,1050345,546.0,2,2.0,1.0,10.0,11.0,64.0,6.0,high,main_task,2.0,15.0,9.0
9121.0,972,1051919,568.0,4,0.0,1.0,10.0,11.0,65.0,6.0,high,main_task,0.0,14.0,8.0
9121.0,974,1053461,534.0,1,2.0,1.0,10.0,11.0,66.0,6.0,high,main_task,2.0,13.0,4.0
9121.0,976,1055100,632.0,4,0.0,1.0,10.0,11.0,67.0,6.0,high,main_task,0.0,14.0,9.0
9121.0,978,1056912,806.0,6,1.0,1.0,10.0,11.0,68.0,6.0,high,main_task,1.0,13.0,1.0
9121.0,980,1058524,607.0,3,2.0,1.0,10.0,11.0,69.0,6.0,high,main_task,2.0,13.0,8.0
9121.0,982,1060086,556.0,5,1.0,1.0,10.0,11.0,70.0,6.0,high,main_task,1.0,14.0,11.0
9121.0,984,1061693,601.0,4,0.0,1.0,10.0,11.0,71.0,6.0,high,main_task,0.0,14.0,10.0
9121.0,986,1063250,552.0,2,2.0,1.0,10.0,11.0,72.0,6.0,high,main_task,2.0,15.0,10.0
9121.0,988,1064877,619.0,2,2.0,1.0,10.0,11.0,73.0,6.0,high,main_task,2.0,15.0,11.0
9121.0,990,1066409,526.0,1,2.0,1.0,10.0,11.0,74.0,6.0,high,main_task,2.0,13.0,5.0
9121.0,992,1068103,688.0,1,2.0,1.0,10.0,11.0,75.0,6.0,high,main_task,2.0,13.0,6.0
9121.0,994,1069625,515.0,3,2.0,1.0,10.0,11.0,76.0,6.0,high,main_task,2.0,13.0,9.0
9121.0,996,1071271,641.0,6,1.0,1.0,10.0,11.0,77.0,6.0,high,main_task,1.0,13.0,2.0
9121.0,998,1072859,581.0,1,2.0,1.0,10.0,11.0,78.0,6.0,high,main_task,2.0,13.0,7.0
9121.0,1000,1074423,558.0,5,1.0,1.0,10.0,11.0,79.0,6.0,high,main_task,1.0,14.0,12.0
9121.0,1002,1076027,598.0,3,2.0,1.0,10.0,11.0,80.0,6.0,high,main_task,2.0,13.0,10.0
9121.0,1004,1077691,658.0,4,0.0,1.0,10.0,11.0,81.0,6.0,high,main_task,0.0,14.0,11.0
9121.0,1006,1079328,631.0,6,1.0,1.0,10.0,11.0,82.0,6.0,high,main_task,1.0,13.0,3.0
9121.0,1008,1080946,612.0,4,0.0,1.0,10.0,11.0,83.0,6.0,high,main_task,0.0,14.0,12.0
9121.0,1010,1082900,948.0,2,2.0,1.0,10.0,11.0,84.0,6.0,high,main_task,2.0,15.0,12.0
9121.0,1012,1084582,676.0,5,1.0,1.0,10.0,11.0,85.0,6.0,high,main_task,1.0,14.0,13.0
9121.0,1014,1086117,529.0,5,1.0,1.0,10.0,11.0,86.0,6.0,high,main_task,1.0,14.0,14.0
9121.0,1016,1087747,624.0,2,2.0,1.0,10.0,11.0,87.0,6.0,high,main_task,2.0,15.0,13.0
9121.0,1018,1089275,522.0,3,1.0,0.0,10.0,11.0,88.0,6.0,high,main_task,2.0,13.0,0.0
9121.0,1020,1090749,467.0,1,2.0,1.0,10.0,11.0,89.0,6.0,high,main_task,2.0,13.0,8.0
9121.0,1022,1092400,645.0,5,1.0,0.0,10.0,11.0,90.0,6.0,high,main_task,2.0,inf,0.0
9121.0,1026,1096938,1057.0,1,0.0,0.0,11.0,12.0,1.0,5.0,high,main_task,1.0,12.0,0.0
9121.0,1028,1098310,366.0,2,0.0,0.0,11.0,12.0,2.0,5.0,high,main_task,2.0,13.0,0.0
9121.0,1030,1099683,367.0,3,0.0,0.0,11.0,12.0,3.0,5.0,high,main_task,1.0,15.0,0.0
9121.0,1032,1101053,364.0,4,0.0,1.0,11.0,12.0,4.0,5.0,high,main_task,0.0,14.0,1.0
9121.0,1034,1102423,363.0,5,0.0,0.0,11.0,12.0,5.0,5.0,high,main_task,1.0,15.0,0.0
9121.0,1036,1103992,562.0,4,0.0,1.0,11.0,12.0,6.0,5.0,high,main_task,0.0,14.0,2.0
9121.0,1038,1105383,385.0,2,1.0,0.0,11.0,12.0,7.0,5.0,high,main_task,2.0,13.0,0.0
9121.0,1040,1106775,387.0,1,1.0,1.0,11.0,12.0,8.0,5.0,high,main_task,1.0,12.0,1.0
9121.0,1042,1108186,407.0,5,1.0,1.0,11.0,12.0,9.0,5.0,high,main_task,1.0,15.0,1.0
9121.0,1044,1109565,372.0,3,1.0,1.0,11.0,12.0,10.0,5.0,high,main_task,1.0,15.0,1.0
9121.0,1046,1111214,641.0,3,1.0,1.0,11.0,12.0,11.0,5.0,high,main_task,1.0,15.0,2.0
9121.0,1048,1112924,704.0,5,0.0,0.0,11.0,12.0,12.0,5.0,high,main_task,1.0,15.0,0.0
9121.0,1050,1115091,1162.0,2,2.0,1.0,11.0,12.0,13.0,5.0,high,main_task,2.0,13.0,1.0
9121.0,1052,1116562,465.0,4,0.0,1.0,11.0,12.0,14.0,5.0,high,main_task,0.0,14.0,3.0
9121.0,1054,1118122,553.0,3,1.0,1.0,11.0,12.0,15.0,5.0,high,main_task,1.0,15.0,3.0
9121.0,1056,1119942,815.0,1,1.0,1.0,11.0,12.0,16.0,5.0,high,main_task,1.0,12.0,2.0
9121.0,1058,1121520,571.0,4,0.0,1.0,11.0,12.0,17.0,5.0,high,main_task,0.0,14.0,4.0
9121.0,1060,1123099,574.0,5,1.0,1.0,11.0,12.0,18.0,5.0,high,main_task,1.0,15.0,1.0
9121.0,1062,1124677,571.0,4,0.0,1.0,11.0,12.0,19.0,5.0,high,main_task,0.0,14.0,5.0
9121.0,1064,1126122,440.0,2,2.0,1.0,11.0,12.0,20.0,5.0,high,main_task,2.0,13.0,2.0
9121.0,1066,1127821,695.0,1,1.0,1.0,11.0,12.0,21.0,5.0,high,main_task,1.0,12.0,3.0
9121.0,1068,1129243,415.0,1,1.0,1.0,11.0,12.0,22.0,5.0,high,main_task,1.0,12.0,4.0
9121.0,1070,1131318,1069.0,5,1.0,1.0,11.0,12.0,23.0,5.0,high,main_task,1.0,15.0,2.0
9121.0,1072,1132976,652.0,3,1.0,1.0,11.0,12.0,24.0,5.0,high,main_task,1.0,15.0,4.0
9121.0,1074,1135115,1132.0,5,1.0,1.0,11.0,12.0,25.0,5.0,high,main_task,1.0,15.0,3.0
9121.0,1076,1136706,585.0,2,2.0,1.0,11.0,12.0,26.0,5.0,high,main_task,2.0,13.0,3.0
9121.0,1078,1138188,475.0,2,2.0,1.0,11.0,12.0,27.0,5.0,high,main_task,2.0,13.0,4.0
9121.0,1080,1139753,558.0,4,0.0,1.0,11.0,12.0,28.0,5.0,high,main_task,0.0,14.0,6.0
9121.0,1082,1141791,1032.0,5,2.0,0.0,11.0,12.0,29.0,5.0,high,main_task,1.0,15.0,0.0
9121.0,1084,1143473,676.0,1,1.0,1.0,11.0,12.0,30.0,5.0,high,main_task,1.0,12.0,5.0
9121.0,1086,1145270,792.0,3,1.0,1.0,11.0,12.0,31.0,5.0,high,main_task,1.0,15.0,5.0
9121.0,1088,1146962,686.0,5,1.0,1.0,11.0,12.0,32.0,5.0,high,main_task,1.0,15.0,1.0
9121.0,1090,1148574,606.0,2,1.0,0.0,11.0,12.0,33.0,5.0,high,main_task,2.0,13.0,0.0
9121.0,1092,1150094,514.0,1,1.0,1.0,11.0,12.0,34.0,5.0,high,main_task,1.0,12.0,6.0
9121.0,1094,1151557,458.0,2,1.0,0.0,11.0,12.0,35.0,5.0,high,main_task,2.0,13.0,0.0
9121.0,1096,1153152,589.0,4,0.0,1.0,11.0,12.0,36.0,5.0,high,main_task,0.0,14.0,7.0
9121.0,1098,1154989,832.0,4,0.0,1.0,11.0,12.0,37.0,5.0,high,main_task,0.0,14.0,8.0
9121.0,1100,1156520,525.0,3,1.0,1.0,11.0,12.0,38.0,5.0,high,main_task,1.0,15.0,6.0
9121.0,1102,1158138,613.0,1,1.0,1.0,11.0,12.0,39.0,5.0,high,main_task,1.0,12.0,7.0
9121.0,1104,1160014,870.0,4,0.0,1.0,11.0,12.0,40.0,5.0,high,main_task,0.0,14.0,9.0
9121.0,1106,1161566,546.0,5,2.0,0.0,11.0,12.0,41.0,5.0,high,main_task,1.0,15.0,0.0
9121.0,1108,1163127,555.0,3,1.0,1.0,11.0,12.0,42.0,5.0,high,main_task,1.0,15.0,7.0
9121.0,1110,1164640,507.0,3,1.0,1.0,11.0,12.0,43.0,5.0,high,main_task,1.0,15.0,8.0
9121.0,1112,1166313,667.0,2,2.0,1.0,11.0,12.0,44.0,5.0,high,main_task,2.0,13.0,1.0
9121.0,1114,1167883,564.0,1,1.0,1.0,11.0,12.0,45.0,5.0,high,main_task,1.0,12.0,8.0
9121.0,1116,1169571,682.0,2,2.0,1.0,11.0,12.0,46.0,5.0,high,main_task,2.0,13.0,2.0
9121.0,1118,1171140,563.0,1,1.0,1.0,11.0,12.0,47.0,5.0,high,main_task,1.0,12.0,9.0
9121.0,1120,1172603,457.0,4,0.0,1.0,11.0,12.0,48.0,5.0,high,main_task,0.0,14.0,10.0
9121.0,1122,1173984,375.0,2,2.0,1.0,11.0,12.0,49.0,5.0,high,main_task,2.0,13.0,3.0
9121.0,1124,1175500,510.0,5,1.0,1.0,11.0,12.0,50.0,5.0,high,main_task,1.0,15.0,1.0
9121.0,1126,1176998,493.0,3,1.0,1.0,11.0,12.0,51.0,5.0,high,main_task,1.0,15.0,9.0
9121.0,1128,1178535,531.0,1,1.0,1.0,11.0,12.0,52.0,5.0,high,main_task,1.0,12.0,10.0
9121.0,1130,1180210,668.0,5,1.0,1.0,11.0,12.0,53.0,5.0,high,main_task,1.0,15.0,2.0
9121.0,1132,1182130,913.0,4,0.0,1.0,11.0,12.0,54.0,5.0,high,main_task,0.0,14.0,11.0
9121.0,1134,1183717,581.0,3,1.0,1.0,11.0,12.0,55.0,5.0,high,main_task,1.0,15.0,10.0
9121.0,1136,1185767,1045.0,3,1.0,1.0,11.0,12.0,56.0,5.0,high,main_task,1.0,15.0,11.0
9121.0,1138,1187266,494.0,1,1.0,1.0,11.0,12.0,57.0,5.0,high,main_task,1.0,12.0,11.0
9121.0,1140,1188864,591.0,2,2.0,1.0,11.0,12.0,58.0,5.0,high,main_task,2.0,13.0,4.0
9121.0,1142,1191380,1510.0,4,0.0,1.0,11.0,12.0,59.0,5.0,high,main_task,0.0,14.0,12.0
9121.0,1144,1193017,632.0,5,1.0,1.0,11.0,12.0,60.0,5.0,high,main_task,1.0,15.0,3.0
9121.0,1146,1194485,461.0,5,1.0,1.0,11.0,12.0,61.0,5.0,high,main_task,1.0,15.0,4.0
9121.0,1148,1196098,607.0,4,0.0,1.0,11.0,12.0,62.0,5.0,high,main_task,0.0,14.0,13.0
9121.0,1150,1197610,507.0,1,1.0,1.0,11.0,12.0,63.0,5.0,high,main_task,1.0,12.0,12.0
9121.0,1152,1199297,680.0,3,1.0,1.0,11.0,12.0,64.0,5.0,high,main_task,1.0,15.0,12.0
9121.0,1154,1200811,508.0,2,2.0,1.0,11.0,12.0,65.0,5.0,high,main_task,2.0,13.0,5.0
9121.0,1156,1202380,564.0,3,1.0,1.0,11.0,12.0,66.0,5.0,high,main_task,1.0,15.0,13.0
9121.0,1158,1203935,547.0,1,1.0,0.0,11.0,12.0,67.0,5.0,high,main_task,0.0,inf,0.0
9121.0,1160,1205503,562.0,2,2.0,1.0,11.0,12.0,68.0,5.0,high,main_task,2.0,13.0,6.0
9121.0,1162,1206999,491.0,4,0.0,1.0,11.0,12.0,69.0,5.0,high,main_task,0.0,14.0,14.0
9121.0,1164,1208768,762.0,5,1.0,1.0,11.0,12.0,70.0,5.0,high,main_task,1.0,15.0,5.0
9121.0,1166,1210319,545.0,3,1.0,1.0,11.0,12.0,71.0,5.0,high,main_task,1.0,15.0,14.0
9121.0,1168,1211839,514.0,5,1.0,1.0,11.0,12.0,72.0,5.0,high,main_task,1.0,15.0,6.0
9121.0,1170,1213327,482.0,1,0.0,1.0,11.0,12.0,73.0,5.0,high,main_task,0.0,inf,1.0
9121.0,1172,1214766,433.0,1,0.0,1.0,11.0,12.0,74.0,5.0,high,main_task,0.0,inf,2.0
9121.0,1174,1216371,598.0,3,1.0,1.0,11.0,12.0,75.0,5.0,high,main_task,1.0,15.0,15.0
9121.0,1178,1219454,320.0,1,0.0,0.0,23.0,13.0,1.0,2.0,low,main_task,2.0,16.0,0.0
9121.0,1180,1220939,479.0,2,0.0,1.0,23.0,13.0,2.0,2.0,low,main_task,0.0,15.0,1.0
9121.0,1182,1222319,374.0,1,1.0,0.0,23.0,13.0,3.0,2.0,low,main_task,2.0,16.0,0.0
9121.0,1184,1223781,456.0,2,0.0,1.0,23.0,13.0,4.0,2.0,low,main_task,0.0,15.0,2.0
9121.0,1186,1225257,472.0,2,0.0,1.0,23.0,13.0,5.0,2.0,low,main_task,0.0,15.0,3.0
9121.0,1188,1226618,354.0,1,2.0,1.0,23.0,13.0,6.0,2.0,low,main_task,2.0,16.0,1.0
9121.0,1190,1228178,555.0,1,2.0,1.0,23.0,13.0,7.0,2.0,low,main_task,2.0,16.0,2.0
9121.0,1192,1229736,552.0,2,0.0,1.0,23.0,13.0,8.0,2.0,low,main_task,0.0,15.0,4.0
9121.0,1194,1231246,505.0,2,0.0,1.0,23.0,13.0,9.0,2.0,low,main_task,0.0,15.0,5.0
9121.0,1196,1232695,442.0,1,2.0,1.0,23.0,13.0,10.0,2.0,low,main_task,2.0,16.0,3.0
9121.0,1198,1234367,625.0,2,0.0,1.0,23.0,13.0,11.0,2.0,low,main_task,0.0,15.0,6.0
9121.0,1200,1235866,494.0,1,2.0,1.0,23.0,13.0,12.0,2.0,low,main_task,2.0,16.0,4.0
9121.0,1202,1237320,450.0,1,2.0,1.0,23.0,13.0,13.0,2.0,low,main_task,2.0,16.0,5.0
9121.0,1204,1239024,700.0,2,0.0,1.0,23.0,13.0,14.0,2.0,low,main_task,0.0,15.0,7.0
9121.0,1206,1240538,510.0,2,0.0,1.0,23.0,13.0,15.0,2.0,low,main_task,0.0,15.0,8.0
9121.0,1208,1241825,284.0,1,2.0,1.0,23.0,13.0,16.0,2.0,low,main_task,2.0,16.0,6.0
9121.0,1210,1243303,473.0,2,0.0,1.0,23.0,13.0,17.0,2.0,low,main_task,0.0,15.0,9.0
9121.0,1212,1244820,511.0,1,2.0,1.0,23.0,13.0,18.0,2.0,low,main_task,2.0,16.0,7.0
9121.0,1214,1246337,511.0,1,2.0,1.0,23.0,13.0,19.0,2.0,low,main_task,2.0,16.0,8.0
9121.0,1216,1247883,539.0,2,0.0,1.0,23.0,13.0,20.0,2.0,low,main_task,0.0,15.0,10.0
9121.0,1218,1249546,656.0,2,0.0,1.0,23.0,13.0,21.0,2.0,low,main_task,0.0,15.0,11.0
9121.0,1220,1250942,390.0,1,2.0,1.0,23.0,13.0,22.0,2.0,low,main_task,2.0,16.0,9.0
9121.0,1222,1252488,540.0,2,0.0,1.0,23.0,13.0,23.0,2.0,low,main_task,0.0,15.0,12.0
9121.0,1224,1254145,651.0,1,2.0,1.0,23.0,13.0,24.0,2.0,low,main_task,2.0,16.0,10.0
9121.0,1226,1255515,365.0,1,2.0,1.0,23.0,13.0,25.0,2.0,low,main_task,2.0,16.0,11.0
9121.0,1228,1257010,489.0,2,0.0,1.0,23.0,13.0,26.0,2.0,low,main_task,0.0,15.0,13.0
9121.0,1230,1258498,482.0,2,0.0,1.0,23.0,13.0,27.0,2.0,low,main_task,0.0,15.0,14.0
9121.0,1232,1260034,529.0,1,2.0,1.0,23.0,13.0,28.0,2.0,low,main_task,2.0,16.0,12.0
9121.0,1234,1261525,484.0,2,0.0,1.0,23.0,13.0,29.0,2.0,low,main_task,0.0,15.0,15.0
9121.0,1236,1263034,503.0,1,2.0,1.0,23.0,13.0,30.0,2.0,low,main_task,2.0,16.0,13.0
9121.0,1240,1266681,352.0,1,0.0,0.0,6.0,14.0,1.0,2.0,low,main_task,1.0,12.0,0.0
9121.0,1242,1268001,313.0,2,0.0,0.0,6.0,14.0,2.0,2.0,low,main_task,2.0,12.0,0.0
9121.0,1244,1269292,285.0,2,1.0,0.0,6.0,14.0,3.0,2.0,low,main_task,2.0,12.0,0.0
9121.0,1246,1270665,367.0,1,1.0,1.0,6.0,14.0,4.0,2.0,low,main_task,1.0,12.0,1.0
9121.0,1248,1272016,345.0,2,2.0,1.0,6.0,14.0,5.0,2.0,low,main_task,2.0,12.0,1.0
9121.0,1250,1273435,413.0,1,1.0,1.0,6.0,14.0,6.0,2.0,low,main_task,1.0,12.0,2.0
9121.0,1252,1275228,787.0,1,1.0,1.0,6.0,14.0,7.0,2.0,low,main_task,1.0,12.0,3.0
9121.0,1254,1276706,471.0,2,2.0,1.0,6.0,14.0,8.0,2.0,low,main_task,2.0,12.0,2.0
9121.0,1256,1278065,353.0,1,1.0,1.0,6.0,14.0,9.0,2.0,low,main_task,1.0,12.0,4.0
9121.0,1258,1279581,510.0,1,1.0,1.0,6.0,14.0,10.0,2.0,low,main_task,1.0,12.0,5.0
9121.0,1260,1280985,398.0,2,2.0,1.0,6.0,14.0,11.0,2.0,low,main_task,2.0,12.0,3.0
9121.0,1262,1282714,723.0,2,2.0,1.0,6.0,14.0,12.0,2.0,low,main_task,2.0,12.0,4.0
9121.0,1264,1284166,446.0,1,1.0,1.0,6.0,14.0,13.0,2.0,low,main_task,1.0,12.0,6.0
9121.0,1266,1285685,513.0,2,2.0,1.0,6.0,14.0,14.0,2.0,low,main_task,2.0,12.0,5.0
9121.0,1268,1287139,448.0,2,2.0,1.0,6.0,14.0,15.0,2.0,low,main_task,2.0,12.0,6.0
9121.0,1270,1288608,462.0,1,1.0,1.0,6.0,14.0,16.0,2.0,low,main_task,1.0,12.0,7.0
9121.0,1272,1290185,572.0,2,2.0,1.0,6.0,14.0,17.0,2.0,low,main_task,2.0,12.0,7.0
9121.0,1274,1291869,677.0,1,1.0,1.0,6.0,14.0,18.0,2.0,low,main_task,1.0,12.0,8.0
9121.0,1276,1293572,697.0,1,1.0,1.0,6.0,14.0,19.0,2.0,low,main_task,1.0,12.0,9.0
9121.0,1278,1294952,373.0,2,2.0,1.0,6.0,14.0,20.0,2.0,low,main_task,2.0,12.0,8.0
9121.0,1280,1296650,691.0,1,1.0,1.0,6.0,14.0,21.0,2.0,low,main_task,1.0,12.0,10.0
9121.0,1282,1298402,744.0,2,2.0,1.0,6.0,14.0,22.0,2.0,low,main_task,2.0,12.0,9.0
9121.0,1284,1300020,612.0,2,2.0,1.0,6.0,14.0,23.0,2.0,low,main_task,2.0,12.0,10.0
9121.0,1286,1301455,431.0,1,1.0,1.0,6.0,14.0,24.0,2.0,low,main_task,1.0,12.0,11.0
9121.0,1288,1303211,751.0,1,1.0,1.0,6.0,14.0,25.0,2.0,low,main_task,1.0,12.0,12.0
9121.0,1290,1304604,387.0,2,2.0,1.0,6.0,14.0,26.0,2.0,low,main_task,2.0,12.0,11.0
9121.0,1292,1306427,817.0,1,1.0,0.0,6.0,14.0,27.0,2.0,low,main_task,0.0,inf,0.0
9121.0,1294,1308156,724.0,1,1.0,0.0,6.0,14.0,28.0,2.0,low,main_task,0.0,inf,0.0
9121.0,1296,1309537,375.0,2,2.0,1.0,6.0,14.0,29.0,2.0,low,main_task,2.0,12.0,12.0
9121.0,1298,1311103,560.0,2,2.0,0.0,6.0,14.0,30.0,2.0,low,main_task,1.0,inf,0.0
9121.0,1302,1314910,323.0,1,0.0,0.0,5.0,15.0,1.0,5.0,high,main_task,2.0,15.0,0.0
9121.0,1304,1316166,249.0,2,0.0,0.0,5.0,15.0,2.0,5.0,high,main_task,2.0,17.0,0.0
9121.0,1306,1317470,298.0,3,0.0,0.0,5.0,15.0,3.0,5.0,high,main_task,1.0,15.0,0.0
9121.0,1308,1318751,276.0,4,0.0,0.0,5.0,15.0,4.0,5.0,high,main_task,1.0,18.0,0.0
9121.0,1310,1320026,269.0,5,0.0,0.0,5.0,15.0,5.0,5.0,high,main_task,1.0,17.0,0.0
9121.0,1312,1321369,338.0,5,1.0,1.0,5.0,15.0,6.0,5.0,high,main_task,1.0,17.0,1.0
9121.0,1314,1322839,463.0,1,1.0,0.0,5.0,15.0,7.0,5.0,high,main_task,2.0,15.0,0.0
9121.0,1316,1324313,468.0,3,1.0,1.0,5.0,15.0,8.0,5.0,high,main_task,1.0,15.0,1.0
9121.0,1318,1325738,418.0,4,1.0,1.0,5.0,15.0,9.0,5.0,high,main_task,1.0,18.0,1.0
9121.0,1320,1327289,545.0,2,1.0,0.0,5.0,15.0,10.0,5.0,high,main_task,2.0,17.0,0.0
9121.0,1322,1329329,1034.0,1,2.0,1.0,5.0,15.0,11.0,5.0,high,main_task,2.0,15.0,1.0
9121.0,1324,1330958,623.0,2,2.0,1.0,5.0,15.0,12.0,5.0,high,main_task,2.0,17.0,1.0
9121.0,1326,1332436,471.0,5,1.0,1.0,5.0,15.0,13.0,5.0,high,main_task,1.0,17.0,2.0
9121.0,1328,1334049,609.0,3,1.0,1.0,5.0,15.0,14.0,5.0,high,main_task,1.0,15.0,2.0
9121.0,1330,1335710,654.0,2,2.0,1.0,5.0,15.0,15.0,5.0,high,main_task,2.0,17.0,2.0
9121.0,1332,1337157,443.0,4,1.0,1.0,5.0,15.0,16.0,5.0,high,main_task,1.0,18.0,2.0
9121.0,1334,1338860,697.0,3,1.0,1.0,5.0,15.0,17.0,5.0,high,main_task,1.0,15.0,3.0
9121.0,1336,1340785,918.0,4,2.0,0.0,5.0,15.0,18.0,5.0,high,main_task,1.0,18.0,0.0
9121.0,1338,1342374,581.0,1,2.0,1.0,5.0,15.0,19.0,5.0,high,main_task,2.0,15.0,2.0
9121.0,1340,1344266,886.0,5,1.0,1.0,5.0,15.0,20.0,5.0,high,main_task,1.0,17.0,3.0
9121.0,1342,1345907,634.0,5,1.0,1.0,5.0,15.0,21.0,5.0,high,main_task,1.0,17.0,4.0
9121.0,1344,1347395,482.0,4,1.0,1.0,5.0,15.0,22.0,5.0,high,main_task,1.0,18.0,1.0
9121.0,1346,1348812,411.0,2,2.0,1.0,5.0,15.0,23.0,5.0,high,main_task,2.0,17.0,3.0
9121.0,1348,1350319,501.0,1,2.0,1.0,5.0,15.0,24.0,5.0,high,main_task,2.0,15.0,3.0
9121.0,1350,1351853,527.0,4,2.0,0.0,5.0,15.0,25.0,5.0,high,main_task,1.0,18.0,0.0
9121.0,1352,1354289,1430.0,3,1.0,1.0,5.0,15.0,26.0,5.0,high,main_task,1.0,15.0,4.0
9121.0,1354,1356099,803.0,5,1.0,1.0,5.0,15.0,27.0,5.0,high,main_task,1.0,17.0,5.0
9121.0,1356,1357871,765.0,3,1.0,1.0,5.0,15.0,28.0,5.0,high,main_task,1.0,15.0,5.0
9121.0,1358,1359474,598.0,3,1.0,1.0,5.0,15.0,29.0,5.0,high,main_task,1.0,15.0,6.0
9121.0,1360,1361239,761.0,1,2.0,1.0,5.0,15.0,30.0,5.0,high,main_task,2.0,15.0,4.0
9121.0,1362,1362800,555.0,2,2.0,1.0,5.0,15.0,31.0,5.0,high,main_task,2.0,17.0,4.0
9121.0,1364,1364734,927.0,2,2.0,1.0,5.0,15.0,32.0,5.0,high,main_task,2.0,17.0,5.0
9121.0,1366,1366149,408.0,1,2.0,1.0,5.0,15.0,33.0,5.0,high,main_task,2.0,15.0,5.0
9121.0,1368,1367626,470.0,4,1.0,1.0,5.0,15.0,34.0,5.0,high,main_task,1.0,18.0,1.0
9121.0,1370,1369313,680.0,5,1.0,1.0,5.0,15.0,35.0,5.0,high,main_task,1.0,17.0,6.0
9121.0,1372,1370750,430.0,2,2.0,1.0,5.0,15.0,36.0,5.0,high,main_task,2.0,17.0,6.0
9121.0,1374,1372231,474.0,1,2.0,1.0,5.0,15.0,37.0,5.0,high,main_task,2.0,15.0,6.0
9121.0,1376,1373776,538.0,3,2.0,0.0,5.0,15.0,38.0,5.0,high,main_task,1.0,15.0,0.0
9121.0,1378,1375536,755.0,4,1.0,1.0,5.0,15.0,39.0,5.0,high,main_task,1.0,18.0,2.0
9121.0,1380,1377196,654.0,5,1.0,1.0,5.0,15.0,40.0,5.0,high,main_task,1.0,17.0,7.0
9121.0,1382,1378758,556.0,4,1.0,1.0,5.0,15.0,41.0,5.0,high,main_task,1.0,18.0,3.0
9121.0,1384,1380916,1151.0,5,1.0,1.0,5.0,15.0,42.0,5.0,high,main_task,1.0,17.0,8.0
9121.0,1386,1383221,1300.0,2,2.0,1.0,5.0,15.0,43.0,5.0,high,main_task,2.0,17.0,7.0
9121.0,1388,1385389,1162.0,3,1.0,1.0,5.0,15.0,44.0,5.0,high,main_task,1.0,15.0,1.0
9121.0,1390,1386941,545.0,1,2.0,1.0,5.0,15.0,45.0,5.0,high,main_task,2.0,15.0,7.0
9121.0,1392,1388420,473.0,1,2.0,1.0,5.0,15.0,46.0,5.0,high,main_task,2.0,15.0,8.0
9121.0,1394,1390028,601.0,3,1.0,1.0,5.0,15.0,47.0,5.0,high,main_task,1.0,15.0,2.0
9121.0,1396,1391670,635.0,4,1.0,1.0,5.0,15.0,48.0,5.0,high,main_task,1.0,18.0,4.0
9121.0,1398,1393246,569.0,5,1.0,1.0,5.0,15.0,49.0,5.0,high,main_task,1.0,17.0,9.0
9121.0,1400,1394907,655.0,1,2.0,1.0,5.0,15.0,50.0,5.0,high,main_task,2.0,15.0,9.0
9121.0,1402,1396563,650.0,4,1.0,1.0,5.0,15.0,51.0,5.0,high,main_task,1.0,18.0,5.0
9121.0,1404,1398099,530.0,2,2.0,1.0,5.0,15.0,52.0,5.0,high,main_task,2.0,17.0,8.0
9121.0,1406,1399643,538.0,2,2.0,1.0,5.0,15.0,53.0,5.0,high,main_task,2.0,17.0,9.0
9121.0,1408,1401181,531.0,5,1.0,1.0,5.0,15.0,54.0,5.0,high,main_task,1.0,17.0,10.0
9121.0,1410,1402736,550.0,4,2.0,0.0,5.0,15.0,55.0,5.0,high,main_task,1.0,18.0,0.0
9121.0,1412,1404541,799.0,3,1.0,1.0,5.0,15.0,56.0,5.0,high,main_task,1.0,15.0,3.0
9121.0,1414,1406123,576.0,3,1.0,1.0,5.0,15.0,57.0,5.0,high,main_task,1.0,15.0,4.0
9121.0,1416,1407739,610.0,2,2.0,1.0,5.0,15.0,58.0,5.0,high,main_task,2.0,17.0,10.0
9121.0,1418,1410250,1505.0,1,1.0,0.0,5.0,15.0,59.0,5.0,high,main_task,2.0,15.0,0.0
9121.0,1420,1411821,565.0,5,1.0,1.0,5.0,15.0,60.0,5.0,high,main_task,1.0,17.0,11.0
9121.0,1422,1413369,543.0,1,2.0,1.0,5.0,15.0,61.0,5.0,high,main_task,2.0,15.0,1.0
9121.0,1424,1414962,585.0,4,1.0,1.0,5.0,15.0,62.0,5.0,high,main_task,1.0,18.0,1.0
9121.0,1426,1416468,499.0,3,1.0,1.0,5.0,15.0,63.0,5.0,high,main_task,1.0,15.0,5.0
9121.0,1428,1418123,648.0,5,1.0,1.0,5.0,15.0,64.0,5.0,high,main_task,1.0,17.0,12.0
9121.0,1430,1419769,641.0,3,1.0,1.0,5.0,15.0,65.0,5.0,high,main_task,1.0,15.0,6.0
9121.0,1432,1421377,602.0,2,2.0,1.0,5.0,15.0,66.0,5.0,high,main_task,2.0,17.0,11.0
9121.0,1434,1423041,657.0,5,1.0,1.0,5.0,15.0,67.0,5.0,high,main_task,1.0,17.0,13.0
9121.0,1436,1424587,540.0,4,1.0,1.0,5.0,15.0,68.0,5.0,high,main_task,1.0,18.0,2.0
9121.0,1438,1426168,573.0,1,2.0,1.0,5.0,15.0,69.0,5.0,high,main_task,2.0,15.0,2.0
9121.0,1440,1427794,620.0,2,2.0,1.0,5.0,15.0,70.0,5.0,high,main_task,2.0,17.0,12.0
9121.0,1442,1429435,635.0,2,2.0,1.0,5.0,15.0,71.0,5.0,high,main_task,2.0,17.0,13.0
9121.0,1444,1431086,646.0,1,2.0,1.0,5.0,15.0,72.0,5.0,high,main_task,2.0,15.0,3.0
9121.0,1446,1432740,648.0,4,1.0,1.0,5.0,15.0,73.0,5.0,high,main_task,1.0,18.0,3.0
9121.0,1448,1434633,886.0,3,1.0,1.0,5.0,15.0,74.0,5.0,high,main_task,1.0,15.0,7.0
9121.0,1450,1436229,590.0,4,1.0,1.0,5.0,15.0,75.0,5.0,high,main_task,1.0,18.0,4.0
9121.0,1454,1493971,337.0,1,0.0,0.0,8.0,16.0,1.0,6.0,high,main_task,2.0,13.0,0.0
9121.0,1456,1495216,237.0,2,0.0,0.0,8.0,16.0,2.0,6.0,high,main_task,2.0,13.0,0.0
9121.0,1458,1496534,311.0,3,0.0,1.0,8.0,16.0,3.0,6.0,high,main_task,0.0,12.0,1.0
9121.0,1460,1498065,524.0,4,0.0,1.0,8.0,16.0,4.0,6.0,high,main_task,0.0,14.0,1.0
9121.0,1462,1499541,469.0,5,0.0,0.0,8.0,16.0,5.0,6.0,high,main_task,2.0,16.0,0.0
9121.0,1464,1501081,535.0,6,0.0,0.0,8.0,16.0,6.0,6.0,high,main_task,1.0,17.0,0.0
9121.0,1466,1502778,691.0,1,1.0,0.0,8.0,16.0,7.0,6.0,high,main_task,2.0,13.0,0.0
9121.0,1468,1504159,374.0,3,1.0,0.0,8.0,16.0,8.0,6.0,high,main_task,0.0,12.0,0.0
9121.0,1470,1505755,590.0,2,1.0,0.0,8.0,16.0,9.0,6.0,high,main_task,2.0,13.0,0.0
9121.0,1472,1507283,522.0,6,1.0,1.0,8.0,16.0,10.0,6.0,high,main_task,1.0,17.0,1.0
9121.0,1474,1509081,792.0,4,0.0,1.0,8.0,16.0,11.0,6.0,high,main_task,0.0,14.0,2.0
9121.0,1476,1510679,593.0,2,1.0,0.0,8.0,16.0,12.0,6.0,high,main_task,2.0,13.0,0.0
9121.0,1478,1512354,670.0,5,1.0,0.0,8.0,16.0,13.0,6.0,high,main_task,2.0,16.0,0.0
9121.0,1480,1514181,822.0,5,2.0,1.0,8.0,16.0,14.0,6.0,high,main_task,2.0,16.0,1.0
9121.0,1482,1516025,838.0,1,2.0,1.0,8.0,16.0,15.0,6.0,high,main_task,2.0,13.0,1.0
9121.0,1484,1517946,914.0,5,2.0,1.0,8.0,16.0,16.0,6.0,high,main_task,2.0,16.0,2.0
9121.0,1486,1519604,653.0,3,0.0,1.0,8.0,16.0,17.0,6.0,high,main_task,0.0,12.0,1.0
9121.0,1488,1521357,747.0,2,2.0,1.0,8.0,16.0,18.0,6.0,high,main_task,2.0,13.0,1.0
9121.0,1490,1522850,486.0,6,1.0,1.0,8.0,16.0,19.0,6.0,high,main_task,1.0,17.0,2.0
9121.0,1492,1524403,547.0,6,1.0,1.0,8.0,16.0,20.0,6.0,high,main_task,1.0,17.0,3.0
9121.0,1494,1526090,681.0,4,0.0,1.0,8.0,16.0,21.0,6.0,high,main_task,0.0,14.0,3.0
9121.0,1496,1527688,591.0,3,0.0,1.0,8.0,16.0,22.0,6.0,high,main_task,0.0,12.0,2.0
9121.0,1498,1529352,658.0,4,0.0,1.0,8.0,16.0,23.0,6.0,high,main_task,0.0,14.0,4.0
9121.0,1500,1530923,564.0,6,1.0,1.0,8.0,16.0,24.0,6.0,high,main_task,1.0,17.0,4.0
9121.0,1502,1532573,644.0,1,2.0,1.0,8.0,16.0,25.0,6.0,high,main_task,2.0,13.0,2.0
9121.0,1504,1534154,575.0,4,0.0,1.0,8.0,16.0,26.0,6.0,high,main_task,0.0,14.0,5.0
9121.0,1506,1535970,810.0,5,2.0,1.0,8.0,16.0,27.0,6.0,high,main_task,2.0,16.0,3.0
9121.0,1508,1537585,611.0,3,0.0,1.0,8.0,16.0,28.0,6.0,high,main_task,0.0,12.0,3.0
9121.0,1510,1539249,658.0,2,2.0,1.0,8.0,16.0,29.0,6.0,high,main_task,2.0,13.0,2.0
9121.0,1512,1540883,627.0,1,2.0,1.0,8.0,16.0,30.0,6.0,high,main_task,2.0,13.0,3.0
9121.0,1514,1542494,607.0,3,0.0,1.0,8.0,16.0,31.0,6.0,high,main_task,0.0,12.0,4.0
9121.0,1516,1544059,559.0,6,1.0,1.0,8.0,16.0,32.0,6.0,high,main_task,1.0,17.0,5.0
9121.0,1518,1545625,560.0,4,1.0,0.0,8.0,16.0,33.0,6.0,high,main_task,0.0,14.0,0.0
9121.0,1520,1547146,516.0,1,2.0,1.0,8.0,16.0,34.0,6.0,high,main_task,2.0,13.0,4.0
9121.0,1522,1548736,584.0,5,2.0,1.0,8.0,16.0,35.0,6.0,high,main_task,2.0,16.0,4.0
9121.0,1524,1550328,588.0,5,2.0,1.0,8.0,16.0,36.0,6.0,high,main_task,2.0,16.0,5.0
9121.0,1526,1551817,485.0,3,0.0,1.0,8.0,16.0,37.0,6.0,high,main_task,0.0,12.0,5.0
9121.0,1528,1553381,560.0,2,2.0,1.0,8.0,16.0,38.0,6.0,high,main_task,2.0,13.0,3.0
9121.0,1530,1554885,501.0,1,2.0,1.0,8.0,16.0,39.0,6.0,high,main_task,2.0,13.0,5.0
9121.0,1532,1556692,803.0,2,2.0,1.0,8.0,16.0,40.0,6.0,high,main_task,2.0,13.0,4.0
9121.0,1534,1558257,559.0,6,1.0,1.0,8.0,16.0,41.0,6.0,high,main_task,1.0,17.0,6.0
9121.0,1536,1559829,565.0,4,0.0,1.0,8.0,16.0,42.0,6.0,high,main_task,0.0,14.0,1.0
9121.0,1538,1561493,658.0,4,0.0,1.0,8.0,16.0,43.0,6.0,high,main_task,0.0,14.0,2.0
9121.0,1540,1563080,581.0,6,1.0,1.0,8.0,16.0,44.0,6.0,high,main_task,1.0,17.0,7.0
9121.0,1542,1564662,576.0,4,0.0,1.0,8.0,16.0,45.0,6.0,high,main_task,0.0,14.0,3.0
9121.0,1544,1566100,431.0,5,2.0,1.0,8.0,16.0,46.0,6.0,high,main_task,2.0,16.0,6.0
9121.0,1546,1567716,609.0,2,2.0,1.0,8.0,16.0,47.0,6.0,high,main_task,2.0,13.0,5.0
9121.0,1548,1569345,623.0,3,0.0,1.0,8.0,16.0,48.0,6.0,high,main_task,0.0,12.0,6.0
9121.0,1550,1570872,520.0,1,2.0,1.0,8.0,16.0,49.0,6.0,high,main_task,2.0,13.0,6.0
9121.0,1552,1572403,526.0,5,2.0,1.0,8.0,16.0,50.0,6.0,high,main_task,2.0,16.0,7.0
9121.0,1554,1574609,1201.0,6,1.0,1.0,8.0,16.0,51.0,6.0,high,main_task,1.0,17.0,8.0
9121.0,1556,1576133,519.0,2,2.0,1.0,8.0,16.0,52.0,6.0,high,main_task,2.0,13.0,6.0
9121.0,1558,1577711,572.0,1,2.0,1.0,8.0,16.0,53.0,6.0,high,main_task,2.0,13.0,7.0
9121.0,1560,1579261,544.0,3,0.0,1.0,8.0,16.0,54.0,6.0,high,main_task,0.0,12.0,7.0
9121.0,1562,1580793,527.0,1,2.0,1.0,8.0,16.0,55.0,6.0,high,main_task,2.0,13.0,8.0
9121.0,1564,1582381,581.0,4,0.0,1.0,8.0,16.0,56.0,6.0,high,main_task,0.0,14.0,4.0
9121.0,1566,1583967,580.0,3,0.0,1.0,8.0,16.0,57.0,6.0,high,main_task,0.0,12.0,8.0
9121.0,1568,1585655,682.0,5,2.0,1.0,8.0,16.0,58.0,6.0,high,main_task,2.0,16.0,8.0
9121.0,1570,1587521,860.0,5,2.0,1.0,8.0,16.0,59.0,6.0,high,main_task,2.0,16.0,9.0
9121.0,1572,1589145,619.0,2,2.0,1.0,8.0,16.0,60.0,6.0,high,main_task,2.0,13.0,7.0
9121.0,1574,1590539,387.0,6,2.0,0.0,8.0,16.0,61.0,6.0,high,main_task,1.0,17.0,0.0
9121.0,1576,1592151,608.0,4,0.0,1.0,8.0,16.0,62.0,6.0,high,main_task,0.0,14.0,5.0
9121.0,1578,1593717,560.0,2,2.0,1.0,8.0,16.0,63.0,6.0,high,main_task,2.0,13.0,8.0
9121.0,1580,1595290,566.0,3,0.0,1.0,8.0,16.0,64.0,6.0,high,main_task,0.0,12.0,9.0
9121.0,1582,1596910,614.0,6,1.0,1.0,8.0,16.0,65.0,6.0,high,main_task,1.0,17.0,1.0
9121.0,1584,1598467,550.0,1,2.0,1.0,8.0,16.0,66.0,6.0,high,main_task,2.0,13.0,9.0
9121.0,1586,1600103,629.0,6,1.0,1.0,8.0,16.0,67.0,6.0,high,main_task,1.0,17.0,2.0
9121.0,1588,1601656,546.0,5,2.0,1.0,8.0,16.0,68.0,6.0,high,main_task,2.0,16.0,10.0
9121.0,1590,1603175,514.0,3,0.0,1.0,8.0,16.0,69.0,6.0,high,main_task,0.0,12.0,10.0
9121.0,1592,1604737,557.0,1,2.0,1.0,8.0,16.0,70.0,6.0,high,main_task,2.0,13.0,10.0
9121.0,1594,1606281,537.0,1,2.0,1.0,8.0,16.0,71.0,6.0,high,main_task,2.0,13.0,11.0
9121.0,1596,1607902,615.0,4,0.0,1.0,8.0,16.0,72.0,6.0,high,main_task,0.0,14.0,6.0
9121.0,1598,1609346,437.0,2,2.0,1.0,8.0,16.0,73.0,6.0,high,main_task,2.0,13.0,9.0
9121.0,1600,1611104,753.0,3,0.0,1.0,8.0,16.0,74.0,6.0,high,main_task,0.0,12.0,11.0
9121.0,1602,1612637,526.0,5,2.0,1.0,8.0,16.0,75.0,6.0,high,main_task,2.0,16.0,11.0
9121.0,1604,1614213,570.0,6,1.0,1.0,8.0,16.0,76.0,6.0,high,main_task,1.0,17.0,3.0
9121.0,1606,1615827,608.0,6,1.0,1.0,8.0,16.0,77.0,6.0,high,main_task,1.0,17.0,4.0
9121.0,1608,1617405,572.0,4,0.0,1.0,8.0,16.0,78.0,6.0,high,main_task,0.0,14.0,7.0
9121.0,1610,1619058,647.0,1,2.0,1.0,8.0,16.0,79.0,6.0,high,main_task,2.0,13.0,12.0
9121.0,1612,1620841,778.0,4,0.0,1.0,8.0,16.0,80.0,6.0,high,main_task,0.0,14.0,8.0
9121.0,1614,1622372,525.0,2,2.0,1.0,8.0,16.0,81.0,6.0,high,main_task,2.0,13.0,10.0
9121.0,1616,1624010,633.0,2,2.0,1.0,8.0,16.0,82.0,6.0,high,main_task,2.0,13.0,11.0
9121.0,1618,1625662,645.0,3,0.0,1.0,8.0,16.0,83.0,6.0,high,main_task,0.0,12.0,12.0
9121.0,1620,1627443,776.0,4,0.0,1.0,8.0,16.0,84.0,6.0,high,main_task,0.0,14.0,9.0
9121.0,1622,1629060,611.0,5,2.0,1.0,8.0,16.0,85.0,6.0,high,main_task,2.0,16.0,12.0
9121.0,1624,1630570,503.0,3,0.0,0.0,8.0,16.0,86.0,6.0,high,main_task,1.0,inf,0.0
9121.0,1626,1632155,580.0,2,2.0,1.0,8.0,16.0,87.0,6.0,high,main_task,2.0,13.0,12.0
9121.0,1628,1633703,541.0,6,1.0,1.0,8.0,16.0,88.0,6.0,high,main_task,1.0,17.0,5.0
9121.0,1630,1635236,527.0,3,1.0,1.0,8.0,16.0,89.0,6.0,high,main_task,1.0,inf,1.0
9121.0,1632,1636810,568.0,1,2.0,1.0,8.0,16.0,90.0,6.0,high,main_task,2.0,13.0,13.0
9121.0,1636,1640376,481.0,1,0.0,0.0,7.0,17.0,1.0,3.0,low,main_task,1.0,16.0,0.0
9121.0,1638,1641644,262.0,2,0.0,0.0,7.0,17.0,2.0,3.0,low,main_task,1.0,16.0,0.0
9121.0,1640,1643189,539.0,3,0.0,0.0,7.0,17.0,3.0,3.0,low,main_task,2.0,18.0,0.0
9121.0,1642,1644533,337.0,2,1.0,1.0,7.0,17.0,4.0,3.0,low,main_task,1.0,16.0,1.0
9121.0,1644,1645952,413.0,1,1.0,1.0,7.0,17.0,5.0,3.0,low,main_task,1.0,16.0,1.0
9121.0,1646,1647434,476.0,3,2.0,1.0,7.0,17.0,6.0,3.0,low,main_task,2.0,18.0,1.0
9121.0,1648,1649063,623.0,3,2.0,1.0,7.0,17.0,7.0,3.0,low,main_task,2.0,18.0,2.0
9121.0,1650,1650599,530.0,2,1.0,1.0,7.0,17.0,8.0,3.0,low,main_task,1.0,16.0,2.0
9121.0,1652,1652238,632.0,3,2.0,1.0,7.0,17.0,9.0,3.0,low,main_task,2.0,18.0,3.0
9121.0,1654,1653756,513.0,1,1.0,1.0,7.0,17.0,10.0,3.0,low,main_task,1.0,16.0,2.0
9121.0,1656,1655230,471.0,1,1.0,1.0,7.0,17.0,11.0,3.0,low,main_task,1.0,16.0,3.0
9121.0,1658,1656900,664.0,2,1.0,1.0,7.0,17.0,12.0,3.0,low,main_task,1.0,16.0,3.0
9121.0,1660,1658479,573.0,1,1.0,1.0,7.0,17.0,13.0,3.0,low,main_task,1.0,16.0,4.0
9121.0,1662,1659922,435.0,3,2.0,1.0,7.0,17.0,14.0,3.0,low,main_task,2.0,18.0,4.0
9121.0,1664,1661570,642.0,2,1.0,1.0,7.0,17.0,15.0,3.0,low,main_task,1.0,16.0,4.0
9121.0,1666,1663099,523.0,1,1.0,1.0,7.0,17.0,16.0,3.0,low,main_task,1.0,16.0,5.0
9121.0,1668,1664625,520.0,1,1.0,1.0,7.0,17.0,17.0,3.0,low,main_task,1.0,16.0,6.0
9121.0,1670,1666212,580.0,3,2.0,1.0,7.0,17.0,18.0,3.0,low,main_task,2.0,18.0,5.0
9121.0,1672,1667776,559.0,3,2.0,1.0,7.0,17.0,19.0,3.0,low,main_task,2.0,18.0,6.0
9121.0,1674,1669364,582.0,2,2.0,0.0,7.0,17.0,20.0,3.0,low,main_task,1.0,16.0,0.0
9121.0,1676,1670892,522.0,3,2.0,1.0,7.0,17.0,21.0,3.0,low,main_task,2.0,18.0,7.0
9121.0,1678,1672343,445.0,1,1.0,1.0,7.0,17.0,22.0,3.0,low,main_task,1.0,16.0,7.0
9121.0,1680,1673939,589.0,2,2.0,0.0,7.0,17.0,23.0,3.0,low,main_task,1.0,16.0,0.0
9121.0,1682,1675369,423.0,2,1.0,1.0,7.0,17.0,24.0,3.0,low,main_task,1.0,16.0,1.0
9121.0,1684,1677168,792.0,3,1.0,0.0,7.0,17.0,25.0,3.0,low,main_task,2.0,18.0,0.0
9121.0,1686,1678699,525.0,2,2.0,0.0,7.0,17.0,26.0,3.0,low,main_task,1.0,16.0,0.0
9121.0,1688,1680268,562.0,1,1.0,1.0,7.0,17.0,27.0,3.0,low,main_task,1.0,16.0,8.0
9121.0,1690,1681807,532.0,3,2.0,1.0,7.0,17.0,28.0,3.0,low,main_task,2.0,18.0,1.0
9121.0,1692,1683569,755.0,2,1.0,1.0,7.0,17.0,29.0,3.0,low,main_task,1.0,16.0,1.0
9121.0,1694,1685093,519.0,3,2.0,1.0,7.0,17.0,30.0,3.0,low,main_task,2.0,18.0,2.0
9121.0,1696,1686564,465.0,1,1.0,1.0,7.0,17.0,31.0,3.0,low,main_task,1.0,16.0,9.0
9121.0,1698,1688059,488.0,1,1.0,1.0,7.0,17.0,32.0,3.0,low,main_task,1.0,16.0,10.0
9121.0,1700,1689683,617.0,2,2.0,0.0,7.0,17.0,33.0,3.0,low,main_task,1.0,16.0,0.0
9121.0,1702,1691295,605.0,2,1.0,1.0,7.0,17.0,34.0,3.0,low,main_task,1.0,16.0,1.0
9121.0,1704,1692850,545.0,3,2.0,1.0,7.0,17.0,35.0,3.0,low,main_task,2.0,18.0,3.0
9121.0,1706,1694438,582.0,1,1.0,1.0,7.0,17.0,36.0,3.0,low,main_task,1.0,16.0,11.0
9121.0,1708,1696148,704.0,2,1.0,1.0,7.0,17.0,37.0,3.0,low,main_task,1.0,16.0,2.0
9121.0,1710,1697647,493.0,1,1.0,1.0,7.0,17.0,38.0,3.0,low,main_task,1.0,16.0,12.0
9121.0,1712,1699197,544.0,2,1.0,1.0,7.0,17.0,39.0,3.0,low,main_task,1.0,16.0,3.0
9121.0,1714,1700706,504.0,3,2.0,1.0,7.0,17.0,40.0,3.0,low,main_task,2.0,18.0,4.0
9121.0,1716,1702272,558.0,3,2.0,1.0,7.0,17.0,41.0,3.0,low,main_task,2.0,18.0,5.0
9121.0,1718,1704291,1012.0,2,1.0,1.0,7.0,17.0,42.0,3.0,low,main_task,1.0,16.0,4.0
9121.0,1720,1706094,797.0,1,1.0,1.0,7.0,17.0,43.0,3.0,low,main_task,1.0,16.0,13.0
9121.0,1722,1707624,525.0,1,1.0,1.0,7.0,17.0,44.0,3.0,low,main_task,1.0,16.0,14.0
9121.0,1724,1709283,652.0,3,2.0,1.0,7.0,17.0,45.0,3.0,low,main_task,2.0,18.0,6.0
9121.0,1728,1713065,646.0,1,0.0,1.0,16.0,19.0,1.0,5.0,high,main_task,0.0,15.0,1.0
9121.0,1730,1714509,437.0,2,0.0,1.0,16.0,19.0,2.0,5.0,high,main_task,0.0,16.0,1.0
9121.0,1732,1715944,428.0,3,0.0,1.0,16.0,19.0,3.0,5.0,high,main_task,0.0,14.0,1.0
9121.0,1734,1717609,658.0,4,0.0,0.0,16.0,19.0,4.0,5.0,high,main_task,1.0,14.0,0.0
9121.0,1736,1719395,780.0,5,0.0,1.0,16.0,19.0,5.0,5.0,high,main_task,0.0,15.0,1.0
9121.0,1738,1721194,793.0,3,0.0,1.0,16.0,19.0,6.0,5.0,high,main_task,0.0,14.0,2.0
9121.0,1740,1722868,667.0,1,0.0,1.0,16.0,19.0,7.0,5.0,high,main_task,0.0,15.0,2.0
9121.0,1742,1724618,745.0,4,1.0,1.0,16.0,19.0,8.0,5.0,high,main_task,1.0,14.0,1.0
9121.0,1744,1726162,537.0,2,0.0,1.0,16.0,19.0,9.0,5.0,high,main_task,0.0,16.0,2.0
9121.0,1746,1727743,576.0,5,0.0,1.0,16.0,19.0,10.0,5.0,high,main_task,0.0,15.0,2.0
9121.0,1748,1729334,585.0,2,0.0,1.0,16.0,19.0,11.0,5.0,high,main_task,0.0,16.0,3.0
9121.0,1750,1730795,457.0,5,0.0,1.0,16.0,19.0,12.0,5.0,high,main_task,0.0,15.0,3.0
9121.0,1752,1732220,420.0,4,1.0,1.0,16.0,19.0,13.0,5.0,high,main_task,1.0,14.0,2.0
9121.0,1754,1733563,338.0,3,0.0,1.0,16.0,19.0,14.0,5.0,high,main_task,0.0,14.0,3.0
9121.0,1756,1735110,540.0,1,0.0,1.0,16.0,19.0,15.0,5.0,high,main_task,0.0,15.0,3.0
9121.0,1758,1736892,776.0,1,0.0,1.0,16.0,19.0,16.0,5.0,high,main_task,0.0,15.0,4.0
9121.0,1760,1738516,617.0,2,0.0,1.0,16.0,19.0,17.0,5.0,high,main_task,0.0,16.0,4.0
9121.0,1762,1740092,569.0,3,0.0,1.0,16.0,19.0,18.0,5.0,high,main_task,0.0,14.0,4.0
9121.0,1764,1741580,482.0,3,0.0,1.0,16.0,19.0,19.0,5.0,high,main_task,0.0,14.0,5.0
9121.0,1766,1743075,489.0,4,1.0,1.0,16.0,19.0,20.0,5.0,high,main_task,1.0,14.0,3.0
9121.0,1768,1744625,543.0,5,0.0,1.0,16.0,19.0,21.0,5.0,high,main_task,0.0,15.0,4.0
9121.0,1770,1746490,858.0,2,0.0,1.0,16.0,19.0,22.0,5.0,high,main_task,0.0,16.0,5.0
9121.0,1772,1748349,852.0,4,1.0,1.0,16.0,19.0,23.0,5.0,high,main_task,1.0,14.0,4.0
9121.0,1774,1749886,531.0,5,0.0,1.0,16.0,19.0,24.0,5.0,high,main_task,0.0,15.0,5.0
9121.0,1776,1751318,426.0,1,0.0,1.0,16.0,19.0,25.0,5.0,high,main_task,0.0,15.0,5.0
9121.0,1778,1752817,492.0,5,0.0,1.0,16.0,19.0,26.0,5.0,high,main_task,0.0,15.0,6.0
9121.0,1780,1754360,537.0,4,1.0,1.0,16.0,19.0,27.0,5.0,high,main_task,1.0,14.0,5.0
9121.0,1782,1755906,541.0,3,0.0,1.0,16.0,19.0,28.0,5.0,high,main_task,0.0,14.0,6.0
9121.0,1784,1757436,522.0,2,0.0,1.0,16.0,19.0,29.0,5.0,high,main_task,0.0,16.0,6.0
9121.0,1786,1758939,497.0,2,0.0,1.0,16.0,19.0,30.0,5.0,high,main_task,0.0,16.0,7.0
9121.0,1788,1760467,522.0,1,0.0,1.0,16.0,19.0,31.0,5.0,high,main_task,0.0,15.0,6.0
9121.0,1790,1761926,452.0,4,1.0,1.0,16.0,19.0,32.0,5.0,high,main_task,1.0,14.0,6.0
9121.0,1792,1763536,603.0,5,0.0,1.0,16.0,19.0,33.0,5.0,high,main_task,0.0,15.0,7.0
9121.0,1794,1765074,531.0,1,0.0,1.0,16.0,19.0,34.0,5.0,high,main_task,0.0,15.0,7.0
9121.0,1796,1766567,488.0,5,0.0,1.0,16.0,19.0,35.0,5.0,high,main_task,0.0,15.0,8.0
9121.0,1798,1768195,622.0,3,0.0,1.0,16.0,19.0,36.0,5.0,high,main_task,0.0,14.0,7.0
9121.0,1800,1769755,554.0,3,0.0,1.0,16.0,19.0,37.0,5.0,high,main_task,0.0,14.0,8.0
9121.0,1802,1771431,668.0,1,0.0,1.0,16.0,19.0,38.0,5.0,high,main_task,0.0,15.0,8.0
9121.0,1804,1772894,456.0,2,0.0,1.0,16.0,19.0,39.0,5.0,high,main_task,0.0,16.0,8.0
9121.0,1806,1774458,558.0,4,1.0,1.0,16.0,19.0,40.0,5.0,high,main_task,1.0,14.0,7.0
9121.0,1808,1776009,544.0,5,0.0,1.0,16.0,19.0,41.0,5.0,high,main_task,0.0,15.0,9.0
9121.0,1810,1777611,596.0,2,0.0,1.0,16.0,19.0,42.0,5.0,high,main_task,0.0,16.0,9.0
9121.0,1812,1779146,528.0,3,0.0,1.0,16.0,19.0,43.0,5.0,high,main_task,0.0,14.0,9.0
9121.0,1814,1780703,551.0,4,1.0,1.0,16.0,19.0,44.0,5.0,high,main_task,1.0,14.0,8.0
9121.0,1816,1782749,1040.0,1,0.0,1.0,16.0,19.0,45.0,5.0,high,main_task,0.0,15.0,9.0
9121.0,1818,1785682,1927.0,4,1.0,1.0,16.0,19.0,46.0,5.0,high,main_task,1.0,14.0,9.0
9121.0,1820,1787302,614.0,2,0.0,1.0,16.0,19.0,47.0,5.0,high,main_task,0.0,16.0,10.0
9121.0,1822,1789446,1137.0,2,0.0,1.0,16.0,19.0,48.0,5.0,high,main_task,0.0,16.0,11.0
9121.0,1824,1792029,1576.0,5,0.0,1.0,16.0,19.0,49.0,5.0,high,main_task,0.0,15.0,10.0
9121.0,1826,1794216,1181.0,3,0.0,1.0,16.0,19.0,50.0,5.0,high,main_task,0.0,14.0,10.0
9121.0,1828,1796349,1127.0,1,0.0,1.0,16.0,19.0,51.0,5.0,high,main_task,0.0,15.0,10.0
9121.0,1830,1797877,522.0,1,0.0,1.0,16.0,19.0,52.0,5.0,high,main_task,0.0,15.0,11.0
9121.0,1832,1799630,747.0,5,0.0,1.0,16.0,19.0,53.0,5.0,high,main_task,0.0,15.0,11.0
9121.0,1834,1801203,567.0,4,1.0,1.0,16.0,19.0,54.0,5.0,high,main_task,1.0,14.0,10.0
9121.0,1836,1802833,624.0,3,0.0,1.0,16.0,19.0,55.0,5.0,high,main_task,0.0,14.0,11.0
9121.0,1838,1804622,782.0,4,1.0,1.0,16.0,19.0,56.0,5.0,high,main_task,1.0,14.0,11.0
9121.0,1840,1807163,1535.0,2,0.0,1.0,16.0,19.0,57.0,5.0,high,main_task,0.0,16.0,12.0
9121.0,1842,1808769,600.0,3,0.0,1.0,16.0,19.0,58.0,5.0,high,main_task,0.0,14.0,12.0
9121.0,1844,1810492,717.0,2,0.0,1.0,16.0,19.0,59.0,5.0,high,main_task,0.0,16.0,13.0
9121.0,1846,1811979,482.0,1,0.0,1.0,16.0,19.0,60.0,5.0,high,main_task,0.0,15.0,12.0
9121.0,1848,1813600,614.0,4,1.0,1.0,16.0,19.0,61.0,5.0,high,main_task,1.0,14.0,12.0
9121.0,1850,1815131,525.0,5,0.0,1.0,16.0,19.0,62.0,5.0,high,main_task,0.0,15.0,12.0
9121.0,1852,1816683,546.0,1,0.0,1.0,16.0,19.0,63.0,5.0,high,main_task,0.0,15.0,13.0
9121.0,1854,1818132,443.0,3,0.0,1.0,16.0,19.0,64.0,5.0,high,main_task,0.0,14.0,13.0
9121.0,1856,1819595,457.0,3,0.0,1.0,16.0,19.0,65.0,5.0,high,main_task,0.0,14.0,14.0
9121.0,1858,1821033,433.0,5,0.0,1.0,16.0,19.0,66.0,5.0,high,main_task,0.0,15.0,13.0
9121.0,1860,1822457,419.0,1,0.0,1.0,16.0,19.0,67.0,5.0,high,main_task,0.0,15.0,14.0
9121.0,1862,1823910,446.0,2,0.0,1.0,16.0,19.0,68.0,5.0,high,main_task,0.0,16.0,14.0
9121.0,1864,1825334,418.0,5,0.0,1.0,16.0,19.0,69.0,5.0,high,main_task,0.0,15.0,14.0
9121.0,1866,1826897,558.0,4,1.0,1.0,16.0,19.0,70.0,5.0,high,main_task,1.0,14.0,13.0
9121.0,1868,1828463,559.0,4,1.0,1.0,16.0,19.0,71.0,5.0,high,main_task,1.0,14.0,14.0
9121.0,1870,1830273,804.0,3,0.0,0.0,16.0,19.0,72.0,5.0,high,main_task,1.0,inf,0.0
9121.0,1872,1831760,481.0,1,0.0,1.0,16.0,19.0,73.0,5.0,high,main_task,0.0,15.0,15.0
9121.0,1874,1833320,553.0,5,0.0,1.0,16.0,19.0,74.0,5.0,high,main_task,0.0,15.0,15.0
9121.0,1876,1835381,1054.0,2,0.0,1.0,16.0,19.0,75.0,5.0,high,main_task,0.0,16.0,15.0
9121.0,1880,1838768,406.0,1,0.0,0.0,21.0,20.0,1.0,6.0,high,main_task,1.0,12.0,0.0
9121.0,1882,1840059,284.0,2,0.0,0.0,21.0,20.0,2.0,6.0,high,main_task,2.0,16.0,0.0
9121.0,1884,1841423,358.0,3,0.0,1.0,21.0,20.0,3.0,6.0,high,main_task,0.0,12.0,1.0
9121.0,1886,1842745,316.0,4,0.0,0.0,21.0,20.0,4.0,6.0,high,main_task,2.0,15.0,0.0
9121.0,1888,1844212,460.0,5,0.0,1.0,21.0,20.0,5.0,6.0,high,main_task,0.0,17.0,1.0
9121.0,1890,1845646,428.0,6,0.0,0.0,21.0,20.0,6.0,6.0,high,main_task,1.0,13.0,0.0
9121.0,1892,1847142,490.0,6,0.0,0.0,21.0,20.0,7.0,6.0,high,main_task,1.0,13.0,0.0
9121.0,1894,1848870,721.0,3,0.0,1.0,21.0,20.0,8.0,6.0,high,main_task,0.0,12.0,2.0
9121.0,1896,1850386,509.0,5,0.0,1.0,21.0,20.0,9.0,6.0,high,main_task,0.0,17.0,2.0
9121.0,1898,1851649,257.0,1,1.0,1.0,21.0,20.0,10.0,6.0,high,main_task,1.0,12.0,1.0
9121.0,1900,1853219,564.0,4,1.0,0.0,21.0,20.0,11.0,6.0,high,main_task,2.0,15.0,0.0
9121.0,1902,1854914,689.0,2,1.0,0.0,21.0,20.0,12.0,6.0,high,main_task,2.0,16.0,0.0
9121.0,1904,1857187,1267.0,4,1.0,0.0,21.0,20.0,13.0,6.0,high,main_task,2.0,15.0,0.0
9121.0,1906,1858848,654.0,3,0.0,1.0,21.0,20.0,14.0,6.0,high,main_task,0.0,12.0,3.0
9121.0,1908,1860495,641.0,6,1.0,1.0,21.0,20.0,15.0,6.0,high,main_task,1.0,13.0,1.0
9121.0,1910,1863493,1993.0,5,0.0,1.0,21.0,20.0,16.0,6.0,high,main_task,0.0,17.0,3.0
9121.0,1912,1865447,948.0,2,2.0,1.0,21.0,20.0,17.0,6.0,high,main_task,2.0,16.0,1.0
9121.0,1914,1867603,1149.0,1,1.0,1.0,21.0,20.0,18.0,6.0,high,main_task,1.0,12.0,2.0
9121.0,1916,1869014,406.0,6,1.0,1.0,21.0,20.0,19.0,6.0,high,main_task,1.0,13.0,2.0
9121.0,1918,1870787,769.0,2,2.0,1.0,21.0,20.0,20.0,6.0,high,main_task,2.0,16.0,2.0
9121.0,1920,1872587,796.0,1,1.0,1.0,21.0,20.0,21.0,6.0,high,main_task,1.0,12.0,3.0
9121.0,1922,1874955,1364.0,5,0.0,1.0,21.0,20.0,22.0,6.0,high,main_task,0.0,17.0,4.0
9121.0,1924,1876409,450.0,4,2.0,1.0,21.0,20.0,23.0,6.0,high,main_task,2.0,15.0,1.0
9121.0,1926,1878216,804.0,5,0.0,1.0,21.0,20.0,24.0,6.0,high,main_task,0.0,17.0,5.0
9121.0,1928,1879815,595.0,3,1.0,0.0,21.0,20.0,25.0,6.0,high,main_task,0.0,12.0,0.0
9121.0,1930,1881488,666.0,3,0.0,1.0,21.0,20.0,26.0,6.0,high,main_task,0.0,12.0,1.0
9121.0,1932,1883674,1180.0,1,1.0,1.0,21.0,20.0,27.0,6.0,high,main_task,1.0,12.0,4.0
9121.0,1934,1885297,616.0,6,1.0,1.0,21.0,20.0,28.0,6.0,high,main_task,1.0,13.0,3.0
9121.0,1936,1886888,585.0,2,2.0,1.0,21.0,20.0,29.0,6.0,high,main_task,2.0,16.0,3.0
9121.0,1938,1888397,504.0,4,2.0,1.0,21.0,20.0,30.0,6.0,high,main_task,2.0,15.0,2.0
9121.0,1940,1890158,756.0,6,1.0,1.0,21.0,20.0,31.0,6.0,high,main_task,1.0,13.0,4.0
9121.0,1942,1891934,769.0,4,2.0,1.0,21.0,20.0,32.0,6.0,high,main_task,2.0,15.0,3.0
9121.0,1944,1894019,1079.0,2,2.0,1.0,21.0,20.0,33.0,6.0,high,main_task,2.0,16.0,4.0
9121.0,1946,1895789,764.0,5,0.0,1.0,21.0,20.0,34.0,6.0,high,main_task,0.0,17.0,6.0
9121.0,1948,1897663,868.0,1,1.0,1.0,21.0,20.0,35.0,6.0,high,main_task,1.0,12.0,5.0
9121.0,1950,1899260,589.0,1,1.0,1.0,21.0,20.0,36.0,6.0,high,main_task,1.0,12.0,6.0
9121.0,1952,1900874,607.0,3,0.0,1.0,21.0,20.0,37.0,6.0,high,main_task,0.0,12.0,2.0
9121.0,1954,1902880,999.0,2,2.0,1.0,21.0,20.0,38.0,6.0,high,main_task,2.0,16.0,5.0
9121.0,1956,1904405,519.0,6,1.0,1.0,21.0,20.0,39.0,6.0,high,main_task,1.0,13.0,5.0
9121.0,1958,1906145,733.0,5,0.0,1.0,21.0,20.0,40.0,6.0,high,main_task,0.0,17.0,7.0
9121.0,1960,1908511,1361.0,4,2.0,1.0,21.0,20.0,41.0,6.0,high,main_task,2.0,15.0,4.0
9121.0,1962,1910206,687.0,3,0.0,1.0,21.0,20.0,42.0,6.0,high,main_task,0.0,12.0,3.0
9121.0,1964,1911807,595.0,3,0.0,1.0,21.0,20.0,43.0,6.0,high,main_task,0.0,12.0,4.0
9121.0,1966,1913581,768.0,4,2.0,1.0,21.0,20.0,44.0,6.0,high,main_task,2.0,15.0,5.0
9121.0,1968,1915384,797.0,2,2.0,1.0,21.0,20.0,45.0,6.0,high,main_task,2.0,16.0,6.0
9121.0,1970,1916970,580.0,1,1.0,1.0,21.0,20.0,46.0,6.0,high,main_task,1.0,12.0,7.0
9121.0,1972,1918792,816.0,2,2.0,1.0,21.0,20.0,47.0,6.0,high,main_task,2.0,16.0,7.0
9121.0,1974,1920477,678.0,4,2.0,1.0,21.0,20.0,48.0,6.0,high,main_task,2.0,15.0,6.0
9121.0,1976,1922138,653.0,5,0.0,1.0,21.0,20.0,49.0,6.0,high,main_task,0.0,17.0,8.0
9121.0,1978,1923741,598.0,6,1.0,1.0,21.0,20.0,50.0,6.0,high,main_task,1.0,13.0,6.0
9121.0,1980,1925596,848.0,1,1.0,1.0,21.0,20.0,51.0,6.0,high,main_task,1.0,12.0,8.0
9121.0,1982,1927154,552.0,6,1.0,1.0,21.0,20.0,52.0,6.0,high,main_task,1.0,13.0,7.0
9121.0,1984,1928747,585.0,3,0.0,1.0,21.0,20.0,53.0,6.0,high,main_task,0.0,12.0,5.0
9121.0,1986,1930295,542.0,1,1.0,1.0,21.0,20.0,54.0,6.0,high,main_task,1.0,12.0,9.0
9121.0,1988,1931736,434.0,5,0.0,1.0,21.0,20.0,55.0,6.0,high,main_task,0.0,17.0,9.0
9121.0,1990,1933411,668.0,6,1.0,1.0,21.0,20.0,56.0,6.0,high,main_task,1.0,13.0,8.0
9121.0,1992,1934985,567.0,3,0.0,1.0,21.0,20.0,57.0,6.0,high,main_task,0.0,12.0,6.0
9121.0,1994,1936647,657.0,2,2.0,1.0,21.0,20.0,58.0,6.0,high,main_task,2.0,16.0,8.0
9121.0,1996,1938057,403.0,4,2.0,1.0,21.0,20.0,59.0,6.0,high,main_task,2.0,15.0,7.0
9121.0,1998,1939622,561.0,5,0.0,1.0,21.0,20.0,60.0,6.0,high,main_task,0.0,17.0,10.0
9121.0,2000,1941221,593.0,5,0.0,1.0,21.0,20.0,61.0,6.0,high,main_task,0.0,17.0,11.0
9121.0,2002,1944185,1959.0,1,0.0,0.0,21.0,20.0,62.0,6.0,high,main_task,1.0,12.0,0.0
9121.0,2004,1945780,588.0,6,1.0,1.0,21.0,20.0,63.0,6.0,high,main_task,1.0,13.0,9.0
9121.0,2006,1947314,528.0,3,0.0,1.0,21.0,20.0,64.0,6.0,high,main_task,0.0,12.0,7.0
9121.0,2008,1948946,625.0,4,2.0,1.0,21.0,20.0,65.0,6.0,high,main_task,2.0,15.0,8.0
9121.0,2010,1950843,890.0,2,2.0,1.0,21.0,20.0,66.0,6.0,high,main_task,2.0,16.0,9.0
9121.0,2012,1952428,579.0,2,2.0,1.0,21.0,20.0,67.0,6.0,high,main_task,2.0,16.0,10.0
9121.0,2014,1953993,559.0,4,2.0,1.0,21.0,20.0,68.0,6.0,high,main_task,2.0,15.0,9.0
9121.0,2016,1955093,95.0,1,2.0,0.0,21.0,20.0,69.0,6.0,high,main_task,1.0,12.0,0.0
9121.0,2018,1957202,1102.0,5,0.0,1.0,21.0,20.0,70.0,6.0,high,main_task,0.0,17.0,12.0
9121.0,2020,1958808,599.0,1,1.0,1.0,21.0,20.0,71.0,6.0,high,main_task,1.0,12.0,1.0
9121.0,2022,1960377,562.0,6,1.0,1.0,21.0,20.0,72.0,6.0,high,main_task,1.0,13.0,10.0
9121.0,2024,1962338,955.0,2,2.0,1.0,21.0,20.0,73.0,6.0,high,main_task,2.0,16.0,11.0
9121.0,2026,1964145,801.0,3,0.0,1.0,21.0,20.0,74.0,6.0,high,main_task,0.0,12.0,8.0
9121.0,2028,1966323,1171.0,3,0.0,1.0,21.0,20.0,75.0,6.0,high,main_task,0.0,12.0,9.0
9121.0,2030,1967870,541.0,4,2.0,1.0,21.0,20.0,76.0,6.0,high,main_task,2.0,15.0,10.0
9121.0,2032,1969424,548.0,6,1.0,1.0,21.0,20.0,77.0,6.0,high,main_task,1.0,13.0,11.0
9121.0,2034,1971082,652.0,3,0.0,1.0,21.0,20.0,78.0,6.0,high,main_task,0.0,12.0,10.0
9121.0,2036,1972607,518.0,6,1.0,1.0,21.0,20.0,79.0,6.0,high,main_task,1.0,13.0,12.0
9121.0,2038,1974361,747.0,5,0.0,1.0,21.0,20.0,80.0,6.0,high,main_task,0.0,17.0,13.0
9121.0,2040,1975949,582.0,2,2.0,1.0,21.0,20.0,81.0,6.0,high,main_task,2.0,16.0,12.0
9121.0,2042,1977503,547.0,1,1.0,1.0,21.0,20.0,82.0,6.0,high,main_task,1.0,12.0,2.0
9121.0,2044,1979123,613.0,5,0.0,1.0,21.0,20.0,83.0,6.0,high,main_task,0.0,17.0,14.0
9121.0,2046,1980760,631.0,6,1.0,1.0,21.0,20.0,84.0,6.0,high,main_task,1.0,13.0,13.0
9121.0,2048,1982272,505.0,2,2.0,1.0,21.0,20.0,85.0,6.0,high,main_task,2.0,16.0,13.0
9121.0,2050,1983804,526.0,4,2.0,1.0,21.0,20.0,86.0,6.0,high,main_task,2.0,15.0,11.0
9121.0,2052,1985344,534.0,4,2.0,1.0,21.0,20.0,87.0,6.0,high,main_task,2.0,15.0,12.0
9121.0,2054,1986891,541.0,1,1.0,1.0,21.0,20.0,88.0,6.0,high,main_task,1.0,12.0,3.0
9121.0,2056,1988568,671.0,3,0.0,1.0,21.0,20.0,89.0,6.0,high,main_task,0.0,12.0,11.0
9121.0,2058,1990207,632.0,5,0.0,1.0,21.0,20.0,90.0,6.0,high,main_task,0.0,17.0,15.0
9121.0,2062,1993883,421.0,1,0.0,0.0,20.0,21.0,1.0,2.0,low,main_task,2.0,17.0,0.0
9121.0,2064,1995218,332.0,2,0.0,0.0,20.0,21.0,2.0,2.0,low,main_task,2.0,12.0,0.0
9121.0,2066,1996471,246.0,1,1.0,0.0,20.0,21.0,3.0,2.0,low,main_task,2.0,17.0,0.0
9121.0,2068,1997786,309.0,1,1.0,0.0,20.0,21.0,4.0,2.0,low,main_task,2.0,17.0,0.0
9121.0,2070,1999161,369.0,2,1.0,0.0,20.0,21.0,5.0,2.0,low,main_task,2.0,12.0,0.0
9121.0,2072,2000484,316.0,2,2.0,1.0,20.0,21.0,6.0,2.0,low,main_task,2.0,12.0,1.0
9121.0,2074,2001821,329.0,1,2.0,1.0,20.0,21.0,7.0,2.0,low,main_task,2.0,17.0,1.0
9121.0,2076,2003319,491.0,2,2.0,1.0,20.0,21.0,8.0,2.0,low,main_task,2.0,12.0,2.0
9121.0,2078,2004676,351.0,2,2.0,1.0,20.0,21.0,9.0,2.0,low,main_task,2.0,12.0,3.0
9121.0,2080,2006031,348.0,1,2.0,1.0,20.0,21.0,10.0,2.0,low,main_task,2.0,17.0,2.0
9121.0,2082,2007386,348.0,2,2.0,1.0,20.0,21.0,11.0,2.0,low,main_task,2.0,12.0,4.0
9121.0,2084,2008712,319.0,1,2.0,1.0,20.0,21.0,12.0,2.0,low,main_task,2.0,17.0,3.0
9121.0,2086,2010021,302.0,1,2.0,1.0,20.0,21.0,13.0,2.0,low,main_task,2.0,17.0,4.0
9121.0,2088,2011291,264.0,2,2.0,1.0,20.0,21.0,14.0,2.0,low,main_task,2.0,12.0,5.0
9121.0,2090,2012616,319.0,2,2.0,1.0,20.0,21.0,15.0,2.0,low,main_task,2.0,12.0,6.0
9121.0,2092,2014039,415.0,1,2.0,1.0,20.0,21.0,16.0,2.0,low,main_task,2.0,17.0,5.0
9121.0,2094,2015584,534.0,2,2.0,1.0,20.0,21.0,17.0,2.0,low,main_task,2.0,12.0,7.0
9121.0,2096,2016958,366.0,1,2.0,1.0,20.0,21.0,18.0,2.0,low,main_task,2.0,17.0,6.0
9121.0,2098,2018430,463.0,1,2.0,1.0,20.0,21.0,19.0,2.0,low,main_task,2.0,17.0,7.0
9121.0,2100,2019813,375.0,2,2.0,1.0,20.0,21.0,20.0,2.0,low,main_task,2.0,12.0,8.0
9121.0,2102,2021132,311.0,2,2.0,1.0,20.0,21.0,21.0,2.0,low,main_task,2.0,12.0,9.0
9121.0,2104,2022470,330.0,1,2.0,1.0,20.0,21.0,22.0,2.0,low,main_task,2.0,17.0,8.0
9121.0,2106,2023919,441.0,2,2.0,1.0,20.0,21.0,23.0,2.0,low,main_task,2.0,12.0,10.0
9121.0,2108,2025278,351.0,1,2.0,1.0,20.0,21.0,24.0,2.0,low,main_task,2.0,17.0,9.0
9121.0,2110,2026629,344.0,1,2.0,1.0,20.0,21.0,25.0,2.0,low,main_task,2.0,17.0,10.0
9121.0,2112,2027932,294.0,2,2.0,1.0,20.0,21.0,26.0,2.0,low,main_task,2.0,12.0,11.0
9121.0,2114,2029359,420.0,1,2.0,1.0,20.0,21.0,27.0,2.0,low,main_task,2.0,17.0,11.0
9121.0,2116,2030745,378.0,1,2.0,1.0,20.0,21.0,28.0,2.0,low,main_task,2.0,17.0,12.0
9121.0,2118,2032329,577.0,2,2.0,1.0,20.0,21.0,29.0,2.0,low,main_task,2.0,12.0,12.0
9121.0,2120,2033907,571.0,2,2.0,0.0,20.0,21.0,30.0,2.0,low,main_task,1.0,inf,0.0
9121.0,2124,2039235,765.0,1,0.0,1.0,15.0,23.0,1.0,3.0,low,main_task,0.0,15.0,1.0
9121.0,2126,2040645,402.0,2,0.0,0.0,15.0,23.0,2.0,3.0,low,main_task,2.0,15.0,0.0
9121.0,2128,2042061,409.0,3,0.0,0.0,15.0,23.0,3.0,3.0,low,main_task,2.0,15.0,0.0
9121.0,2130,2043481,413.0,1,0.0,1.0,15.0,23.0,4.0,3.0,low,main_task,0.0,15.0,2.0
9121.0,2132,2044824,336.0,3,1.0,0.0,15.0,23.0,5.0,3.0,low,main_task,2.0,15.0,0.0
9121.0,2134,2046140,308.0,2,1.0,0.0,15.0,23.0,6.0,3.0,low,main_task,2.0,15.0,0.0
9121.0,2136,2047628,482.0,2,2.0,1.0,15.0,23.0,7.0,3.0,low,main_task,2.0,15.0,1.0
9121.0,2138,2048964,329.0,3,2.0,1.0,15.0,23.0,8.0,3.0,low,main_task,2.0,15.0,1.0
9121.0,2140,2050305,334.0,1,0.0,1.0,15.0,23.0,9.0,3.0,low,main_task,0.0,15.0,3.0
9121.0,2142,2051907,594.0,1,0.0,1.0,15.0,23.0,10.0,3.0,low,main_task,0.0,15.0,4.0
9121.0,2144,2053784,871.0,2,2.0,1.0,15.0,23.0,11.0,3.0,low,main_task,2.0,15.0,2.0
9121.0,2146,2055419,628.0,3,2.0,1.0,15.0,23.0,12.0,3.0,low,main_task,2.0,15.0,2.0
9121.0,2148,2056943,519.0,2,2.0,1.0,15.0,23.0,13.0,3.0,low,main_task,2.0,15.0,3.0
9121.0,2150,2058418,467.0,3,2.0,1.0,15.0,23.0,14.0,3.0,low,main_task,2.0,15.0,3.0
9121.0,2152,2059809,383.0,1,0.0,1.0,15.0,23.0,15.0,3.0,low,main_task,0.0,15.0,5.0
9121.0,2154,2061362,547.0,3,2.0,1.0,15.0,23.0,16.0,3.0,low,main_task,2.0,15.0,4.0
9121.0,2156,2062839,470.0,2,2.0,1.0,15.0,23.0,17.0,3.0,low,main_task,2.0,15.0,4.0
9121.0,2158,2064718,872.0,1,0.0,1.0,15.0,23.0,18.0,3.0,low,main_task,0.0,15.0,6.0
9121.0,2160,2066286,562.0,1,0.0,1.0,15.0,23.0,19.0,3.0,low,main_task,0.0,15.0,7.0
9121.0,2162,2067733,439.0,2,2.0,1.0,15.0,23.0,20.0,3.0,low,main_task,2.0,15.0,5.0
9121.0,2164,2069250,510.0,3,2.0,1.0,15.0,23.0,21.0,3.0,low,main_task,2.0,15.0,5.0
9121.0,2166,2070743,486.0,3,2.0,1.0,15.0,23.0,22.0,3.0,low,main_task,2.0,15.0,6.0
9121.0,2168,2072294,544.0,1,0.0,1.0,15.0,23.0,23.0,3.0,low,main_task,0.0,15.0,8.0
9121.0,2170,2074007,706.0,1,0.0,1.0,15.0,23.0,24.0,3.0,low,main_task,0.0,15.0,9.0
9121.0,2172,2075467,454.0,2,2.0,1.0,15.0,23.0,25.0,3.0,low,main_task,2.0,15.0,6.0
9121.0,2174,2076971,498.0,1,0.0,1.0,15.0,23.0,26.0,3.0,low,main_task,0.0,15.0,10.0
9121.0,2176,2078450,472.0,3,2.0,1.0,15.0,23.0,27.0,3.0,low,main_task,2.0,15.0,7.0
9121.0,2178,2079894,437.0,2,2.0,1.0,15.0,23.0,28.0,3.0,low,main_task,2.0,15.0,7.0
9121.0,2180,2081378,477.0,3,2.0,1.0,15.0,23.0,29.0,3.0,low,main_task,2.0,15.0,8.0
9121.0,2182,2082820,434.0,2,2.0,1.0,15.0,23.0,30.0,3.0,low,main_task,2.0,15.0,8.0
9121.0,2184,2084233,408.0,1,0.0,1.0,15.0,23.0,31.0,3.0,low,main_task,0.0,15.0,11.0
9121.0,2186,2085828,589.0,3,2.0,1.0,15.0,23.0,32.0,3.0,low,main_task,2.0,15.0,9.0
9121.0,2188,2087365,530.0,2,2.0,1.0,15.0,23.0,33.0,3.0,low,main_task,2.0,15.0,9.0
9121.0,2190,2088913,541.0,2,2.0,1.0,15.0,23.0,34.0,3.0,low,main_task,2.0,15.0,10.0
9121.0,2192,2090517,597.0,1,0.0,1.0,15.0,23.0,35.0,3.0,low,main_task,0.0,15.0,12.0
9121.0,2194,2092060,536.0,3,2.0,1.0,15.0,23.0,36.0,3.0,low,main_task,2.0,15.0,10.0
9121.0,2196,2094075,1008.0,3,2.0,1.0,15.0,23.0,37.0,3.0,low,main_task,2.0,15.0,11.0
9121.0,2198,2095576,495.0,2,2.0,1.0,15.0,23.0,38.0,3.0,low,main_task,2.0,15.0,11.0
9121.0,2200,2097096,514.0,3,2.0,1.0,15.0,23.0,39.0,3.0,low,main_task,2.0,15.0,12.0
9121.0,2202,2098628,526.0,1,0.0,1.0,15.0,23.0,40.0,3.0,low,main_task,0.0,15.0,13.0
9121.0,2204,2100182,546.0,2,2.0,1.0,15.0,23.0,41.0,3.0,low,main_task,2.0,15.0,12.0
9121.0,2206,2101870,682.0,2,2.0,1.0,15.0,23.0,42.0,3.0,low,main_task,2.0,15.0,13.0
9121.0,2208,2103380,502.0,1,0.0,1.0,15.0,23.0,43.0,3.0,low,main_task,0.0,15.0,14.0
9121.0,2210,2104823,437.0,3,2.0,1.0,15.0,23.0,44.0,3.0,low,main_task,2.0,15.0,13.0
9121.0,2212,2106382,552.0,1,0.0,1.0,15.0,23.0,45.0,3.0,low,main_task,0.0,15.0,15.0
,202,1011895,375.5,1,0.0,0.0,22.0,3.0,1.0,2.0,low,main_task,1.0,15.0,0.0
,204,1013439,521.1000003814697,2,2.0,0.0,22.0,3.0,2.0,2.0,low,main_task,0.0,15.0,0.0
,206,1014671,205.0,1,1.0,1.0,22.0,3.0,3.0,2.0,low,main_task,1.0,15.0,1.0
,208,1016051,334.8999996185303,1,1.0,1.0,22.0,3.0,4.0,2.0,low,main_task,1.0,15.0,2.0
,210,1017422,358.9000015258789,2,2.0,0.0,22.0,3.0,5.0,2.0,low,main_task,0.0,15.0,0.0
,212,1018851,409.0,2,0.0,1.0,22.0,3.0,6.0,2.0,low,main_task,0.0,15.0,1.0
,214,1020255,392.79999923706055,1,1.0,1.0,22.0,3.0,7.0,2.0,low,main_task,1.0,15.0,3.0
,216,1021603,329.6000003814697,2,0.0,1.0,22.0,3.0,8.0,2.0,low,main_task,0.0,15.0,2.0
,218,1023007,390.29999923706055,2,0.0,1.0,22.0,3.0,9.0,2.0,low,main_task,0.0,15.0,3.0
,220,1024485,469.70000076293945,1,1.0,1.0,22.0,3.0,10.0,2.0,low,main_task,1.0,15.0,4.0
,222,1025889,387.8000011444092,2,1.0,0.0,22.0,3.0,11.0,2.0,low,main_task,0.0,15.0,0.0
,224,1027364,447.6000003814697,1,0.0,0.0,22.0,3.0,12.0,2.0,low,main_task,1.0,15.0,0.0
,226,1029000,627.8999996185303,1,1.0,1.0,22.0,3.0,13.0,2.0,low,main_task,1.0,15.0,1.0
,228,1030287,265.0,2,0.0,1.0,22.0,3.0,14.0,2.0,low,main_task,0.0,15.0,1.0
,230,1031722,410.20000076293945,1,1.0,1.0,22.0,3.0,15.0,2.0,low,main_task,1.0,15.0,2.0
,232,1033205,458.0999984741211,2,0.0,1.0,22.0,3.0,16.0,2.0,low,main_task,0.0,15.0,2.0
,234,1034705,476.6000003814697,2,0.0,1.0,22.0,3.0,17.0,2.0,low,main_task,0.0,15.0,3.0
,236,1036184,448.8999996185303,1,1.0,1.0,22.0,3.0,18.0,2.0,low,main_task,1.0,15.0,3.0
,238,1037722,518.2999992370605,1,1.0,1.0,22.0,3.0,19.0,2.0,low,main_task,1.0,15.0,4.0
,240,1039395,644.1999988555908,2,0.0,1.0,22.0,3.0,20.0,2.0,low,main_task,0.0,15.0,4.0
,242,1040855,432.8000011444092,1,1.0,1.0,22.0,3.0,21.0,2.0,low,main_task,1.0,15.0,5.0
,244,1042372,492.8999996185303,2,0.0,1.0,22.0,3.0,22.0,2.0,low,main_task,0.0,15.0,5.0
,246,1043884,482.8999996185303,2,0.0,1.0,22.0,3.0,23.0,2.0,low,main_task,0.0,15.0,6.0
,248,1045340,440.0999984741211,1,1.0,1.0,22.0,3.0,24.0,2.0,low,main_task,1.0,15.0,6.0
,250,1046722,360.1999988555908,1,0.0,0.0,22.0,3.0,25.0,2.0,low,main_task,1.0,15.0,0.0
,252,1048356,620.3999996185303,2,0.0,1.0,22.0,3.0,26.0,2.0,low,main_task,0.0,15.0,7.0
,254,1049835,467.70000076293945,2,0.0,1.0,22.0,3.0,27.0,2.0,low,main_task,0.0,15.0,8.0
,256,1051255,406.79999923706055,1,1.0,1.0,22.0,3.0,28.0,2.0,low,main_task,1.0,15.0,1.0
,258,1052638,358.1000003814697,2,0.0,1.0,22.0,3.0,29.0,2.0,low,main_task,0.0,15.0,9.0
,260,1054080,424.1000003814697,1,1.0,1.0,22.0,3.0,30.0,2.0,low,main_task,1.0,15.0,2.0
,264,1088620,428.0,1,0.0,1.0,10.0,4.0,1.0,6.0,high,main_task,0.0,12.0,1.0
,266,1090229,580.0,2,1.0,0.0,10.0,4.0,2.0,6.0,high,main_task,2.0,12.0,0.0
,268,1091833,566.3999996185303,3,1.0,1.0,10.0,4.0,3.0,6.0,high,main_task,1.0,15.0,1.0
,270,1093653,790.7999992370605,4,2.0,0.0,10.0,4.0,4.0,6.0,high,main_task,0.0,14.0,0.0
,272,1095466,776.7999992370605,5,0.0,1.0,10.0,4.0,5.0,6.0,high,main_task,0.0,15.0,1.0
,274,1097352,876.2000007629395,6,1.0,0.0,10.0,4.0,6.0,6.0,high,main_task,2.0,14.0,0.0
,276,1099156,787.3999996185303,2,1.0,0.0,10.0,4.0,7.0,6.0,high,main_task,2.0,12.0,0.0
,278,1100877,707.4000015258789,6,2.0,1.0,10.0,4.0,8.0,6.0,high,main_task,2.0,14.0,1.0
,280,1102628,720.6999988555908,1,0.0,1.0,10.0,4.0,9.0,6.0,high,main_task,0.0,12.0,2.0
,282,1104824,1166.1000003814695,4,1.0,0.0,10.0,4.0,10.0,6.0,high,main_task,0.0,14.0,0.0
,284,1106672,826.6000003814697,2,0.0,0.0,10.0,4.0,11.0,6.0,high,main_task,2.0,12.0,0.0
,286,1108536,836.5,5,0.0,1.0,10.0,4.0,12.0,6.0,high,main_task,0.0,15.0,2.0
,288,1110410,868.0,3,2.0,0.0,10.0,4.0,13.0,6.0,high,main_task,1.0,15.0,0.0
,290,1112390,954.2000007629396,3,1.0,1.0,10.0,4.0,14.0,6.0,high,main_task,1.0,15.0,1.0
,292,1114306,908.7000007629396,5,2.0,0.0,10.0,4.0,15.0,6.0,high,main_task,0.0,15.0,0.0
,294,1116633,1305.0,4,2.0,0.0,10.0,4.0,16.0,6.0,high,main_task,0.0,14.0,0.0
,296,1118723,1069.2999992370603,6,1.0,0.0,10.0,4.0,17.0,6.0,high,main_task,2.0,14.0,0.0
,298,1120456,708.5,1,0.0,1.0,10.0,4.0,18.0,6.0,high,main_task,0.0,12.0,3.0
,300,1121987,509.70000076293945,3,0.0,0.0,10.0,4.0,19.0,6.0,high,main_task,1.0,15.0,0.0
,302,1123857,854.7000007629395,4,1.0,0.0,10.0,4.0,20.0,6.0,high,main_task,0.0,14.0,0.0
,304,1125640,763.4000015258789,1,2.0,0.0,10.0,4.0,21.0,6.0,high,main_task,0.0,12.0,0.0
,306,1127606,942.4000015258788,2,0.0,0.0,10.0,4.0,22.0,6.0,high,main_task,2.0,12.0,0.0
,308,1129756,1120.8000011444092,5,0.0,1.0,10.0,4.0,23.0,6.0,high,main_task,0.0,15.0,1.0
,310,1131623,839.8000011444092,6,1.0,0.0,10.0,4.0,24.0,6.0,high,main_task,2.0,14.0,0.0
,312,1133671,1028.6000003814695,5,0.0,1.0,10.0,4.0,25.0,6.0,high,main_task,0.0,15.0,2.0
,314,1135640,952.1000003814696,4,2.0,0.0,10.0,4.0,26.0,6.0,high,main_task,0.0,14.0,0.0
,316,1137540,866.6000003814697,2,0.0,0.0,10.0,4.0,27.0,6.0,high,main_task,2.0,12.0,0.0
,318,1139490,928.7999992370604,1,1.0,0.0,10.0,4.0,28.0,6.0,high,main_task,0.0,12.0,0.0
,320,1141607,1093.0,3,2.0,0.0,10.0,4.0,29.0,6.0,high,main_task,1.0,15.0,0.0
,322,1143472,838.1999988555908,3,0.0,0.0,10.0,4.0,30.0,6.0,high,main_task,1.0,15.0,0.0
,324,1145574,1082.1000003814695,2,0.0,0.0,10.0,4.0,31.0,6.0,high,main_task,2.0,12.0,0.0
,326,1148240,1633.2000007629397,6,1.0,0.0,10.0,4.0,32.0,6.0,high,main_task,2.0,14.0,0.0
,328,1150807,1540.5,6,1.0,0.0,10.0,4.0,33.0,6.0,high,main_task,2.0,14.0,0.0
,330,1152774,936.1999988555908,5,0.0,1.0,10.0,4.0,34.0,6.0,high,main_task,0.0,15.0,3.0
,332,1154724,913.8999996185304,4,1.0,0.0,10.0,4.0,35.0,6.0,high,main_task,0.0,14.0,0.0
,334,1156740,995.7000007629396,5,0.0,1.0,10.0,4.0,36.0,6.0,high,main_task,0.0,15.0,4.0
,336,1159407,1641.3999996185305,6,2.0,1.0,10.0,4.0,37.0,6.0,high,main_task,2.0,14.0,1.0
,338,1161273,836.5,1,0.0,1.0,10.0,4.0,38.0,6.0,high,main_task,0.0,12.0,1.0
,340,1163357,1063.2000007629397,2,1.0,0.0,10.0,4.0,39.0,6.0,high,main_task,2.0,12.0,0.0
,342,1165290,903.0,4,2.0,0.0,10.0,4.0,40.0,6.0,high,main_task,0.0,14.0,0.0
,344,1167652,1329.2000007629397,3,2.0,0.0,10.0,4.0,41.0,6.0,high,main_task,1.0,15.0,0.0
,346,1170190,1523.0,2,0.0,0.0,10.0,4.0,42.0,6.0,high,main_task,2.0,12.0,0.0
,348,1172324,1105.5,5,0.0,1.0,10.0,4.0,43.0,6.0,high,main_task,0.0,15.0,5.0
,350,1174040,681.7000007629395,1,0.0,1.0,10.0,4.0,44.0,6.0,high,main_task,0.0,12.0,2.0
,352,1175874,812.0,1,0.0,1.0,10.0,4.0,45.0,6.0,high,main_task,0.0,12.0,3.0
,354,1177574,677.0999984741211,5,0.0,1.0,10.0,4.0,46.0,6.0,high,main_task,0.0,15.0,6.0
,356,1179690,1084.1000003814695,6,0.0,0.0,10.0,4.0,47.0,6.0,high,main_task,2.0,14.0,0.0
,358,1181691,966.2999992370604,4,0.0,1.0,10.0,4.0,48.0,6.0,high,main_task,0.0,14.0,1.0
,360,1183807,1091.2999992370603,6,2.0,1.0,10.0,4.0,49.0,6.0,high,main_task,2.0,14.0,1.0
,362,1185488,650.2999992370605,3,0.0,0.0,10.0,4.0,50.0,6.0,high,main_task,1.0,15.0,0.0
,364,1187388,882.0,1,0.0,1.0,10.0,4.0,51.0,6.0,high,main_task,0.0,12.0,4.0
,366,1189707,1310.2000007629397,4,0.0,1.0,10.0,4.0,52.0,6.0,high,main_task,0.0,14.0,2.0
,368,1191657,931.5,2,0.0,0.0,10.0,4.0,53.0,6.0,high,main_task,2.0,12.0,0.0
,370,1193724,1036.7999992370603,6,2.0,1.0,10.0,4.0,54.0,6.0,high,main_task,2.0,14.0,2.0
,372,1195440,689.6000003814697,2,1.0,0.0,10.0,4.0,55.0,6.0,high,main_task,2.0,12.0,0.0
,374,1197440,974.2000007629396,5,0.0,1.0,10.0,4.0,56.0,6.0,high,main_task,0.0,15.0,7.0
,376,1199507,1047.8000011444092,3,0.0,0.0,10.0,4.0,57.0,6.0,high,main_task,1.0,15.0,0.0
,378,1201674,1134.8000011444092,3,1.0,1.0,10.0,4.0,58.0,6.0,high,main_task,1.0,15.0,1.0
,380,1203407,699.8999996185303,5,0.0,1.0,10.0,4.0,59.0,6.0,high,main_task,0.0,15.0,8.0
,382,1205090,654.3999996185303,1,0.0,1.0,10.0,4.0,60.0,6.0,high,main_task,0.0,12.0,5.0
,384,1207091,970.8999996185304,2,0.0,0.0,10.0,4.0,61.0,6.0,high,main_task,2.0,12.0,0.0
,386,1209406,1284.3000011444092,4,0.0,1.0,10.0,4.0,62.0,6.0,high,main_task,0.0,14.0,3.0
,388,1211057,624.1000003814697,1,0.0,1.0,10.0,4.0,63.0,6.0,high,main_task,0.0,12.0,6.0
,390,1213174,1083.1000003814695,6,2.0,1.0,10.0,4.0,64.0,6.0,high,main_task,2.0,14.0,3.0
,392,1214841,646.6000003814697,3,1.0,1.0,10.0,4.0,65.0,6.0,high,main_task,1.0,15.0,2.0
,394,1216491,619.7000007629395,4,1.0,0.0,10.0,4.0,66.0,6.0,high,main_task,0.0,14.0,0.0
,396,1218205,692.6000003814697,4,2.0,0.0,10.0,4.0,67.0,6.0,high,main_task,0.0,14.0,0.0
,398,1219807,596.6000003814697,1,0.0,1.0,10.0,4.0,68.0,6.0,high,main_task,0.0,12.0,7.0
,400,1222838,,2,-1.0,0.0,10.0,4.0,69.0,6.0,high,main_task,2.0,12.0,0.0
,402,1225006,1154.599998474121,5,0.0,1.0,10.0,4.0,70.0,6.0,high,main_task,0.0,15.0,9.0
,404,1227175,1139.2999992370603,3,2.0,0.0,10.0,4.0,71.0,6.0,high,main_task,1.0,15.0,0.0
,406,1228991,798.6000003814697,6,1.0,0.0,10.0,4.0,72.0,6.0,high,main_task,2.0,14.0,0.0
,408,1230341,322.1999988555908,3,0.0,0.0,10.0,4.0,73.0,6.0,high,main_task,1.0,15.0,0.0
,410,1232257,884.1000003814697,4,2.0,0.0,10.0,4.0,74.0,6.0,high,main_task,0.0,14.0,0.0
,412,1233841,563.7000007629395,6,1.0,0.0,10.0,4.0,75.0,6.0,high,main_task,2.0,14.0,0.0
,414,1235491,630.0,5,0.0,1.0,10.0,4.0,76.0,6.0,high,main_task,0.0,15.0,10.0
,416,1237073,555.5,1,0.0,1.0,10.0,4.0,77.0,6.0,high,main_task,0.0,12.0,8.0
,418,1238741,639.8999996185303,5,0.0,1.0,10.0,4.0,78.0,6.0,high,main_task,0.0,15.0,11.0
,420,1240608,840.2999992370605,2,0.0,0.0,10.0,4.0,79.0,6.0,high,main_task,2.0,12.0,0.0
,422,1242574,946.8999996185304,6,2.0,1.0,10.0,4.0,80.0,6.0,high,main_task,2.0,14.0,1.0
,424,1244175,576.0999984741211,1,0.0,1.0,10.0,4.0,81.0,6.0,high,main_task,0.0,12.0,9.0
,426,1247225,,2,-1.0,0.0,10.0,4.0,82.0,6.0,high,main_task,2.0,12.0,0.0
,428,1248957,705.6999988555908,2,2.0,1.0,10.0,4.0,83.0,6.0,high,main_task,2.0,12.0,1.0
,430,1250957,982.8999996185304,3,1.0,1.0,10.0,4.0,84.0,6.0,high,main_task,1.0,15.0,1.0
,432,1253158,1177.2999992370603,4,2.0,0.0,10.0,4.0,85.0,6.0,high,main_task,0.0,14.0,0.0
,434,1255075,898.6999988555908,4,1.0,0.0,10.0,4.0,86.0,6.0,high,main_task,0.0,14.0,0.0
,436,1257108,1011.5,6,2.0,1.0,10.0,4.0,87.0,6.0,high,main_task,2.0,14.0,2.0
,438,1258842,706.0,3,1.0,1.0,10.0,4.0,88.0,6.0,high,main_task,1.0,15.0,2.0
,440,1260442,567.7999992370605,5,0.0,1.0,10.0,4.0,89.0,6.0,high,main_task,0.0,15.0,12.0
,442,1262092,628.5,1,0.0,1.0,10.0,4.0,90.0,6.0,high,main_task,0.0,12.0,10.0
,446,1280359,554.8000011444092,1,0.0,0.0,15.0,5.0,1.0,5.0,high,main_task,1.0,13.0,0.0
,448,1281892,508.1000003814697,2,1.0,0.0,15.0,5.0,2.0,5.0,high,main_task,2.0,16.0,0.0
,450,1283359,434.20000076293945,3,2.0,1.0,15.0,5.0,3.0,5.0,high,main_task,2.0,17.0,1.0
,452,1285041,645.1000003814697,4,0.0,0.0,15.0,5.0,4.0,5.0,high,main_task,1.0,15.0,0.0
,454,1286558,506.5999984741211,5,1.0,0.0,15.0,5.0,5.0,5.0,high,main_task,0.0,16.0,0.0
,456,1288131,535.1000003814697,1,2.0,0.0,15.0,5.0,6.0,5.0,high,main_task,1.0,13.0,0.0
,458,1289886,737.2999992370605,3,0.0,0.0,15.0,5.0,7.0,5.0,high,main_task,2.0,17.0,0.0
,460,1291275,382.5,5,1.0,0.0,15.0,5.0,8.0,5.0,high,main_task,0.0,16.0,0.0
,462,1292638,335.20000076293945,2,2.0,1.0,15.0,5.0,9.0,5.0,high,main_task,2.0,16.0,1.0
,464,1294242,584.8000011444092,4,1.0,1.0,15.0,5.0,10.0,5.0,high,main_task,1.0,15.0,1.0
,466,1295892,615.3000011444092,2,2.0,1.0,15.0,5.0,11.0,5.0,high,main_task,2.0,16.0,2.0
,468,1297625,704.5,2,2.0,1.0,15.0,5.0,12.0,5.0,high,main_task,2.0,16.0,3.0
,470,1299142,481.79999923706055,4,1.0,1.0,15.0,5.0,13.0,5.0,high,main_task,1.0,15.0,2.0
,472,1300526,360.29999923706055,1,0.0,0.0,15.0,5.0,14.0,5.0,high,main_task,1.0,13.0,0.0
,474,1302242,691.5,5,1.0,0.0,15.0,5.0,15.0,5.0,high,main_task,0.0,16.0,0.0
,476,1304176,909.5,3,1.0,0.0,15.0,5.0,16.0,5.0,high,main_task,2.0,17.0,0.0
,478,1305976,781.1000003814697,5,0.0,1.0,15.0,5.0,17.0,5.0,high,main_task,0.0,16.0,1.0
,480,1307709,703.0999984741211,1,0.0,0.0,15.0,5.0,18.0,5.0,high,main_task,1.0,13.0,0.0
,482,1309826,1087.5,4,1.0,1.0,15.0,5.0,19.0,5.0,high,main_task,1.0,15.0,3.0
,484,1311509,655.3000011444092,4,1.0,1.0,15.0,5.0,20.0,5.0,high,main_task,1.0,15.0,4.0
,486,1313293,759.2999992370605,2,2.0,1.0,15.0,5.0,21.0,5.0,high,main_task,2.0,16.0,4.0
,488,1314859,534.5,3,0.0,0.0,15.0,5.0,22.0,5.0,high,main_task,2.0,17.0,0.0
,490,1316659,775.3999996185303,1,1.0,1.0,15.0,5.0,23.0,5.0,high,main_task,1.0,13.0,1.0
,492,1318704,1017.6000003814696,5,2.0,0.0,15.0,5.0,24.0,5.0,high,main_task,0.0,16.0,0.0
,494,1320376,640.6999988555908,3,1.0,0.0,15.0,5.0,25.0,5.0,high,main_task,2.0,17.0,0.0
,496,1322108,705.9000015258789,3,0.0,0.0,15.0,5.0,26.0,5.0,high,main_task,2.0,17.0,0.0
,498,1323940,820.1000003814697,1,1.0,1.0,15.0,5.0,27.0,5.0,high,main_task,1.0,13.0,2.0
,500,1325824,859.1000003814697,4,1.0,1.0,15.0,5.0,28.0,5.0,high,main_task,1.0,15.0,5.0
,502,1327741,905.2999992370604,5,2.0,0.0,15.0,5.0,29.0,5.0,high,main_task,0.0,16.0,0.0
,504,1329692,932.0999984741212,2,2.0,1.0,15.0,5.0,30.0,5.0,high,main_task,2.0,16.0,5.0
,506,1331981,1255.0,5,1.0,0.0,15.0,5.0,31.0,5.0,high,main_task,0.0,16.0,0.0
,508,1334142,1133.2999992370603,1,2.0,0.0,15.0,5.0,32.0,5.0,high,main_task,1.0,13.0,0.0
,510,1335976,810.5,3,0.0,0.0,15.0,5.0,33.0,5.0,high,main_task,2.0,17.0,0.0
,512,1337793,790.8000011444092,2,2.0,1.0,15.0,5.0,34.0,5.0,high,main_task,2.0,16.0,6.0
,514,1339726,903.1999988555908,1,1.0,1.0,15.0,5.0,35.0,5.0,high,main_task,1.0,13.0,1.0
,516,1341476,717.1000003814697,4,1.0,1.0,15.0,5.0,36.0,5.0,high,main_task,1.0,15.0,6.0
,518,1343243,736.0999984741211,4,1.0,1.0,15.0,5.0,37.0,5.0,high,main_task,1.0,15.0,7.0
,520,1345207,950.1000003814696,5,0.0,1.0,15.0,5.0,38.0,5.0,high,main_task,0.0,16.0,1.0
,522,1347410,1193.5,3,0.0,0.0,15.0,5.0,39.0,5.0,high,main_task,2.0,17.0,0.0
,524,1349643,1204.3999996185305,5,0.0,1.0,15.0,5.0,40.0,5.0,high,main_task,0.0,16.0,2.0
,526,1351576,905.0,3,1.0,0.0,15.0,5.0,41.0,5.0,high,main_task,2.0,17.0,0.0
,528,1353356,747.0999984741211,2,2.0,1.0,15.0,5.0,42.0,5.0,high,main_task,2.0,16.0,7.0
,530,1355309,943.3000011444092,1,1.0,1.0,15.0,5.0,43.0,5.0,high,main_task,1.0,13.0,2.0
,532,1357293,957.1000003814696,3,2.0,1.0,15.0,5.0,44.0,5.0,high,main_task,2.0,17.0,1.0
,534,1359293,966.2000007629396,4,1.0,1.0,15.0,5.0,45.0,5.0,high,main_task,1.0,15.0,8.0
,536,1360909,588.1999988555908,2,2.0,1.0,15.0,5.0,46.0,5.0,high,main_task,2.0,16.0,8.0
,538,1362743,805.5999984741211,2,2.0,1.0,15.0,5.0,47.0,5.0,high,main_task,2.0,16.0,9.0
,540,1364509,746.5,1,0.0,0.0,15.0,5.0,48.0,5.0,high,main_task,1.0,13.0,0.0
,542,1366677,1138.2999992370603,5,0.0,1.0,15.0,5.0,49.0,5.0,high,main_task,0.0,16.0,3.0
,544,1368860,1157.1000003814695,3,2.0,1.0,15.0,5.0,50.0,5.0,high,main_task,2.0,17.0,2.0
,546,1370710,817.0,4,1.0,1.0,15.0,5.0,51.0,5.0,high,main_task,1.0,15.0,9.0
,548,1372710,980.2999992370604,5,0.0,1.0,15.0,5.0,52.0,5.0,high,main_task,0.0,16.0,4.0
,550,1374460,724.3999996185303,4,1.0,1.0,15.0,5.0,53.0,5.0,high,main_task,1.0,15.0,10.0
,552,1376393,915.2999992370604,2,2.0,1.0,15.0,5.0,54.0,5.0,high,main_task,2.0,16.0,10.0
,554,1378126,714.3999996185303,1,1.0,1.0,15.0,5.0,55.0,5.0,high,main_task,1.0,13.0,1.0
,556,1379960,802.1000003814697,5,1.0,0.0,15.0,5.0,56.0,5.0,high,main_task,0.0,16.0,0.0
,558,1381576,596.0999984741211,4,1.0,1.0,15.0,5.0,57.0,5.0,high,main_task,1.0,15.0,11.0
,560,1383193,586.8999996185303,4,1.0,1.0,15.0,5.0,58.0,5.0,high,main_task,1.0,15.0,12.0
,562,1384910,691.5,3,2.0,1.0,15.0,5.0,59.0,5.0,high,main_task,2.0,17.0,3.0
,564,1386892,962.8000011444092,1,0.0,0.0,15.0,5.0,60.0,5.0,high,main_task,1.0,13.0,0.0
,566,1388943,1033.5,3,2.0,1.0,15.0,5.0,61.0,5.0,high,main_task,2.0,17.0,4.0
,568,1390677,710.6000003814697,2,2.0,1.0,15.0,5.0,62.0,5.0,high,main_task,2.0,16.0,11.0
,570,1392391,693.3000011444092,2,2.0,1.0,15.0,5.0,63.0,5.0,high,main_task,2.0,16.0,12.0
,572,1394107,697.2000007629395,4,1.0,1.0,15.0,5.0,64.0,5.0,high,main_task,1.0,15.0,13.0
,574,1395877,756.0,5,0.0,1.0,15.0,5.0,65.0,5.0,high,main_task,0.0,16.0,1.0
,576,1397671,765.9000015258789,1,2.0,0.0,15.0,5.0,66.0,5.0,high,main_task,1.0,13.0,0.0
,578,1399260,570.0,2,2.0,1.0,15.0,5.0,67.0,5.0,high,main_task,2.0,16.0,13.0
,580,1401293,1011.8999996185304,5,1.0,0.0,15.0,5.0,68.0,5.0,high,main_task,0.0,16.0,0.0
,582,1403210,891.8999996185303,3,2.0,1.0,15.0,5.0,69.0,5.0,high,main_task,2.0,17.0,5.0
,584,1404844,598.7999992370605,5,0.0,1.0,15.0,5.0,70.0,5.0,high,main_task,0.0,16.0,1.0
,586,1406560,684.1999988555908,1,1.0,1.0,15.0,5.0,71.0,5.0,high,main_task,1.0,13.0,1.0
,588,1408310,723.3000011444092,1,1.0,1.0,15.0,5.0,72.0,5.0,high,main_task,1.0,13.0,2.0
,590,1410060,726.5,4,1.0,1.0,15.0,5.0,73.0,5.0,high,main_task,1.0,15.0,14.0
,592,1411759,677.8000011444092,2,2.0,1.0,15.0,5.0,74.0,5.0,high,main_task,2.0,16.0,14.0
,594,1413494,722.9000015258789,1,1.0,1.0,15.0,5.0,75.0,5.0,high,main_task,1.0,13.0,3.0
,598,1428640,487.3999996185303,1,1.0,1.0,9.0,6.0,1.0,2.0,low,main_task,1.0,13.0,1.0
,600,1430210,562.6999988555908,2,1.0,0.0,9.0,6.0,2.0,2.0,low,main_task,0.0,16.0,0.0
,602,1431728,492.1999988555908,2,2.0,0.0,9.0,6.0,3.0,2.0,low,main_task,0.0,16.0,0.0
,604,1433544,791.8999996185303,1,1.0,1.0,9.0,6.0,4.0,2.0,low,main_task,1.0,13.0,2.0
,606,1434977,410.6999988555908,2,0.0,1.0,9.0,6.0,5.0,2.0,low,main_task,0.0,16.0,1.0
,608,1436674,675.7000007629395,1,1.0,1.0,9.0,6.0,6.0,2.0,low,main_task,1.0,13.0,3.0
,610,1438349,655.5999984741211,1,1.0,1.0,9.0,6.0,7.0,2.0,low,main_task,1.0,13.0,4.0
,612,1439936,567.0,2,0.0,1.0,9.0,6.0,8.0,2.0,low,main_task,0.0,16.0,2.0
,614,1441563,598.0,2,0.0,1.0,9.0,6.0,9.0,2.0,low,main_task,0.0,16.0,3.0
,616,1443210,622.8999996185303,1,1.0,1.0,9.0,6.0,10.0,2.0,low,main_task,1.0,13.0,5.0
,618,1444875,644.2999992370605,2,1.0,0.0,9.0,6.0,11.0,2.0,low,main_task,0.0,16.0,0.0
,620,1446690,806.2000007629395,1,1.0,1.0,9.0,6.0,12.0,2.0,low,main_task,1.0,13.0,6.0
,622,1448243,542.2000007629395,1,1.0,1.0,9.0,6.0,13.0,2.0,low,main_task,1.0,13.0,7.0
,624,1449811,556.6000003814697,2,0.0,1.0,9.0,6.0,14.0,2.0,low,main_task,0.0,16.0,1.0
,626,1451444,599.1999988555908,1,1.0,1.0,9.0,6.0,15.0,2.0,low,main_task,1.0,13.0,8.0
,628,1452928,454.20000076293945,1,1.0,1.0,9.0,6.0,16.0,2.0,low,main_task,1.0,13.0,9.0
,630,1454526,579.9000015258789,2,0.0,1.0,9.0,6.0,17.0,2.0,low,main_task,0.0,16.0,2.0
,632,1456127,570.1000003814697,2,0.0,1.0,9.0,6.0,18.0,2.0,low,main_task,0.0,16.0,3.0
,634,1457694,534.2999992370605,1,1.0,1.0,9.0,6.0,19.0,2.0,low,main_task,1.0,13.0,10.0
,636,1459493,778.3999996185303,2,0.0,1.0,9.0,6.0,20.0,2.0,low,main_task,0.0,16.0,4.0
,638,1461059,536.0,2,0.0,1.0,9.0,6.0,21.0,2.0,low,main_task,0.0,16.0,5.0
,640,1462544,454.1999988555908,1,1.0,1.0,9.0,6.0,22.0,2.0,low,main_task,1.0,13.0,11.0
,642,1464128,566.1000003814697,1,1.0,1.0,9.0,6.0,23.0,2.0,low,main_task,1.0,13.0,12.0
,644,1465577,427.8999996185303,2,0.0,1.0,9.0,6.0,24.0,2.0,low,main_task,0.0,16.0,6.0
,646,1467061,460.1999988555908,1,1.0,1.0,9.0,6.0,25.0,2.0,low,main_task,1.0,13.0,13.0
,648,1468582,500.8999996185303,2,0.0,1.0,9.0,6.0,26.0,2.0,low,main_task,0.0,16.0,7.0
,650,1470077,476.29999923706055,1,1.0,0.0,9.0,6.0,27.0,2.0,low,main_task,2.0,inf,0.0
,652,1471527,428.29999923706055,2,0.0,1.0,9.0,6.0,28.0,2.0,low,main_task,0.0,16.0,8.0
,654,1473327,776.6000003814697,2,1.0,0.0,9.0,6.0,29.0,2.0,low,main_task,0.0,16.0,0.0
,656,1475244,879.7000007629395,1,1.0,0.0,9.0,6.0,30.0,2.0,low,main_task,2.0,inf,0.0
,660,1491492,447.8999996185303,1,0.0,1.0,2.0,7.0,1.0,3.0,low,main_task,0.0,15.0,1.0
,662,1492944,425.0,2,1.0,1.0,2.0,7.0,2.0,3.0,low,main_task,1.0,18.0,1.0
,664,1494594,632.3000011444092,3,2.0,0.0,2.0,7.0,3.0,3.0,low,main_task,0.0,12.0,0.0
,666,1496278,663.6000003814697,3,2.0,0.0,2.0,7.0,4.0,3.0,low,main_task,0.0,12.0,0.0
,668,1498159,851.7000007629395,2,1.0,1.0,2.0,7.0,5.0,3.0,low,main_task,1.0,18.0,2.0
