sona_id,trial_in_experiment,block,time_elapsed,rt,stimulus,key_press,correct,trial_in_block,set_size,load_condition
9187,1,1.0,394018,,1,-1.0,False,1,4,high
9187,2,1.0,397042,,2,-1.0,False,2,4,high
9187,3,1.0,400075,,2,-1.0,False,3,4,high
9187,4,1.0,403111,,1,-1.0,False,4,4,high
9187,5,1.0,405026,887.0999999046326,2,1.0,False,5,4,high
9187,6,1.0,407324,1276.2999999523165,1,0.0,False,6,4,high
9187,7,1.0,410351,,1,-1.0,False,7,4,high
9187,8,1.0,413375,,2,-1.0,False,8,4,high
9187,9,1.0,416419,,1,-1.0,False,9,4,high
9187,10,1.0,419446,,2,-1.0,False,10,4,high
9187,11,1.0,422459,,2,-1.0,False,11,4,high
9187,12,1.0,425479,,1,-1.0,False,12,4,high
9187,13,1.0,428524,,1,-1.0,False,13,4,high
9187,14,1.0,430968,1419.0,2,1.0,False,14,4,high
9187,15,1.0,434012,,2,-1.0,False,15,4,high
9187,16,1.0,436586,1550.5,1,0.0,False,16,4,high
9187,17,1.0,439607,,2,-1.0,False,17,4,high
9187,18,1.0,442641,,1,-1.0,False,18,4,high
9187,19,1.0,445681,,1,-1.0,False,19,4,high
9187,20,1.0,447713,1013.2000000476836,2,1.0,False,20,4,high
9187,21,1.0,458452,,4,-1.0,False,21,4,high
9187,22,1.0,461490,,4,-1.0,False,22,4,high
9187,23,1.0,462854,349.90000009536743,3,1.0,False,23,4,high
9187,24,1.0,464721,846.0,4,1.0,True,24,4,high
9187,25,1.0,466147,408.09999990463257,3,1.0,False,25,4,high
9187,26,1.0,468349,1181.1999998092651,3,1.0,False,26,4,high
9187,27,1.0,469879,510.5,4,1.0,True,27,4,high
9187,28,1.0,472910,,3,-1.0,False,28,4,high
9187,29,1.0,474224,289.90000009536743,4,1.0,True,29,4,high
9187,30,1.0,477254,,4,-1.0,False,30,4,high
9187,31,1.0,480048,1772.4000000953674,3,1.0,False,31,4,high
9187,32,1.0,483078,,3,-1.0,False,32,4,high
9187,33,1.0,484468,366.7000000476837,4,1.0,True,33,4,high
9187,34,1.0,487503,,3,-1.0,False,34,4,high
9187,35,1.0,488924,385.59999990463257,4,0.0,False,35,4,high
9187,36,1.0,490223,263.10000014305115,4,1.0,True,36,4,high
9187,37,1.0,491554,321.5,3,0.0,True,37,4,high
9187,38,1.0,492993,414.2000000476837,3,1.0,False,38,4,high
9187,39,1.0,494386,380.7000000476837,4,1.0,True,39,4,high
9187,40,2.0,506863,357.09999990463257,1,2.0,True,1,3,low
9187,41,2.0,508439,554.2999999523163,1,2.0,True,2,3,low
9187,42,2.0,510025,556.2999999523163,1,2.0,True,3,3,low
9187,43,2.0,511500,451.0,1,2.0,True,4,3,low
9187,44,2.0,512996,476.69999980926514,1,2.0,True,5,3,low
9187,45,2.0,514459,440.69999980926514,1,2.0,False,6,3,low
9187,46,2.0,515850,370.0,1,1.0,False,7,3,low
9187,47,2.0,517114,234.40000009536743,1,0.0,True,8,3,low
9187,48,2.0,518736,581.4000000953674,1,0.0,True,9,3,low
9187,49,2.0,520082,323.0,1,0.0,True,10,3,low
9187,50,2.0,521383,272.7999999523163,1,0.0,True,11,3,low
9187,51,2.0,522696,280.5,1,0.0,False,12,3,low
9187,52,2.0,523767,52.0,1,1.0,True,13,3,low
9187,53,2.0,525199,401.7000000476837,1,1.0,True,14,3,low
9187,54,2.0,526491,267.09999990463257,1,1.0,True,15,3,low
9187,55,2.0,527852,341.7000000476837,1,1.0,True,16,3,low
9187,56,2.0,528944,65.59999990463257,1,0.0,False,17,3,low
9187,57,2.0,530273,322.40000009536743,1,1.0,True,18,3,low
9187,58,2.0,531451,147.89999985694885,1,1.0,True,19,3,low
9187,59,2.0,532563,83.69999980926514,1,1.0,True,20,3,low
9187,60,2.0,533897,306.0,1,1.0,True,21,3,low
9187,61,2.0,535170,255.29999995231628,1,1.0,True,22,3,low
9187,62,2.0,536522,332.09999990463257,1,1.0,False,23,3,low
9187,63,2.0,537918,381.0,1,2.0,True,24,3,low
9187,64,2.0,543472,1210.5,3,1.0,True,25,3,low
9187,65,2.0,544900,407.09999990463257,3,1.0,True,26,3,low
9187,66,2.0,546240,314.10000014305115,3,1.0,True,27,3,low
9187,67,2.0,547534,276.90000009536743,3,1.0,True,28,3,low
9187,68,2.0,548893,342.2000000476837,3,1.0,True,29,3,low
9187,69,2.0,550252,331.0,3,1.0,False,30,3,low
9187,70,2.0,551601,321.30000019073486,3,0.0,False,31,3,low
9187,71,2.0,552931,301.7999999523163,3,2.0,True,32,3,low
9187,72,2.0,554255,301.40000009536743,3,2.0,True,33,3,low
9187,73,2.0,555546,276.0,3,2.0,True,34,3,low
9187,74,2.0,556867,309.5,3,0.0,True,35,3,low
9187,75,2.0,558177,291.2999999523163,3,0.0,True,36,3,low
9187,76,2.0,559302,101.40000009536745,3,0.0,True,37,3,low
9187,77,2.0,560532,218.59999990463257,3,0.0,True,38,3,low
9187,78,2.0,561966,405.2000000476837,3,1.0,False,39,3,low
9187,79,2.0,563410,431.2999999523163,3,2.0,True,40,3,low
9187,80,2.0,564661,222.10000014305115,3,2.0,True,41,3,low
9187,81,2.0,565973,286.60000014305115,3,2.0,True,42,3,low
9187,82,2.0,567168,173.40000009536743,3,2.0,True,43,3,low
9187,83,2.0,568497,314.10000014305115,3,1.0,False,44,3,low
9187,84,2.0,569798,287.5,3,2.0,True,45,3,low
9187,85,2.0,571113,296.59999990463257,3,2.0,True,46,3,low
9187,86,2.0,572421,285.39999985694885,3,2.0,True,47,3,low
9187,87,2.0,573758,320.2000000476837,3,2.0,True,48,3,low
9187,88,3.0,584355,662.1000001430511,1,0.0,True,1,2,low
9187,89,3.0,586001,621.8999998569489,2,2.0,True,2,2,low
9187,90,3.0,587475,448.5,1,0.0,True,3,2,low
9187,91,3.0,588780,291.7999999523163,2,2.0,True,4,2,low
9187,92,3.0,590081,277.7000000476837,2,0.0,False,5,2,low
9187,93,3.0,591398,288.40000009536743,1,1.0,False,6,2,low
9187,94,3.0,592747,334.2999999523163,1,2.0,False,7,2,low
9187,95,3.0,594132,370.09999990463257,2,0.0,False,8,2,low
9187,96,3.0,595489,346.0,2,0.0,False,9,2,low
9187,97,3.0,596805,295.90000009536743,1,1.0,False,10,2,low
9187,98,3.0,598203,375.30000019073486,2,2.0,True,11,2,low
9187,99,3.0,599614,382.7999999523163,1,2.0,False,12,2,low
9187,100,3.0,600999,351.69999980926514,1,0.0,True,13,2,low
9187,101,3.0,602442,414.0,2,0.0,False,14,2,low
9187,102,3.0,603767,306.40000009536743,1,1.0,False,15,2,low
9187,103,3.0,605139,350.7000000476837,2,2.0,True,16,2,low
9187,104,3.0,606616,450.4000000953674,2,2.0,True,17,2,low
9187,105,3.0,607954,315.59999990463257,1,0.0,True,18,2,low
9187,106,3.0,609335,354.19999980926514,1,0.0,True,19,2,low
9187,107,3.0,610702,338.2000000476837,2,1.0,False,20,2,low
9187,108,3.0,611963,251.09999990463257,2,2.0,True,21,2,low
9187,109,3.0,613287,302.0,1,2.0,False,22,2,low
9187,110,3.0,614634,324.5,2,0.0,False,23,2,low
9187,111,3.0,615993,344.59999990463257,1,1.0,False,24,2,low
9187,112,3.0,617293,268.10000014305115,1,2.0,False,25,2,low
9187,113,3.0,618555,242.5,2,0.0,False,26,2,low
9187,114,3.0,619940,362.30000019073486,1,1.0,False,27,2,low
9187,115,3.0,621266,307.59999990463257,1,2.0,False,28,2,low
9187,116,3.0,622666,386.9000000953674,2,0.0,False,29,2,low
9187,117,3.0,623967,290.7999999523163,2,2.0,True,30,2,low
9187,118,5.0,633488,549.0,1,1.0,True,1,2,low
9187,119,5.0,634804,283.7999999523163,2,1.0,False,2,2,low
9187,120,5.0,636086,265.59999990463257,2,2.0,True,3,2,low
9187,121,5.0,637623,517.5,1,0.0,False,4,2,low
9187,122,5.0,638957,312.90000009536743,2,1.0,False,5,2,low
9187,123,5.0,640277,311.10000014305115,1,2.0,False,6,2,low
9187,124,5.0,641597,309.69999980926514,1,1.0,True,7,2,low
9187,125,5.0,643086,466.2999999523163,2,2.0,True,8,2,low
9187,126,5.0,644424,312.7999999523163,1,1.0,True,9,2,low
9187,127,5.0,645679,236.90000009536743,1,2.0,False,10,2,low
9187,128,5.0,647110,408.7000000476837,2,2.0,True,11,2,low
9187,129,5.0,648427,290.2999999523163,2,1.0,False,12,2,low
9187,130,5.0,649720,263.5,1,0.0,False,13,2,low
9187,131,5.0,651014,286.30000019073486,2,2.0,True,14,2,low
9187,132,5.0,652414,384.4000000953674,2,1.0,False,15,2,low
9187,133,5.0,653710,264.7000000476837,1,2.0,False,16,2,low
9187,134,5.0,655074,334.2999999523163,2,2.0,True,17,2,low
9187,135,5.0,656437,330.10000014305115,1,1.0,True,18,2,low
9187,136,5.0,657748,296.0,1,2.0,False,19,2,low
9187,137,5.0,659060,284.5,2,1.0,False,20,2,low
9187,138,5.0,660415,324.39999985694885,2,0.0,False,21,2,low
9187,139,5.0,661828,376.0,1,1.0,True,22,2,low
9187,140,5.0,663128,276.10000014305115,2,2.0,True,23,2,low
9187,141,5.0,664464,318.2999999523163,1,1.0,True,24,2,low
9187,142,5.0,665775,289.7000000476837,1,2.0,False,25,2,low
9187,143,5.0,667237,453.59999990463257,2,2.0,True,26,2,low
9187,144,5.0,668529,260.39999985694885,1,1.0,True,27,2,low
9187,145,5.0,669962,408.2999999523163,2,2.0,True,28,2,low
9187,146,5.0,671248,268.7000000476837,2,1.0,False,29,2,low
9187,147,5.0,672718,455.9000000953674,1,1.0,True,30,2,low
9187,148,6.0,678030,1625.4000000953674,1,2.0,True,1,5,high
9187,149,6.0,679906,861.5999999046326,2,0.0,False,2,5,high
9187,150,6.0,681751,834.3000001907349,3,0.0,True,3,5,high
9187,151,6.0,683660,884.2999999523163,4,0.0,True,4,5,high
9187,152,6.0,685530,854.0,5,1.0,False,5,5,high
9187,153,6.0,686864,319.60000014305115,2,2.0,True,6,5,high
9187,154,6.0,688607,720.8999998569489,4,0.0,True,7,5,high
9187,155,6.0,690096,469.4000000953674,1,1.0,False,8,5,high
9187,156,6.0,692020,906.5,3,0.0,True,9,5,high
9187,157,6.0,693489,437.30000019073486,5,2.0,True,10,5,high
9187,158,6.0,694888,358.2999999523163,5,0.0,False,11,5,high
9187,159,6.0,696490,582.9000000953674,2,0.0,False,12,5,high
9187,160,6.0,697949,452.39999985694885,3,2.0,False,13,5,high
9187,161,6.0,699235,261.5,4,0.0,True,14,5,high
9187,162,6.0,700694,443.2000000476837,3,2.0,False,15,5,high
9187,163,6.0,701965,262.90000009536743,1,0.0,False,16,5,high
9187,164,6.0,703285,306.90000009536743,4,1.0,False,17,5,high
9187,165,6.0,704644,339.40000009536743,1,2.0,True,18,5,high
9187,166,6.0,706264,594.2000000476837,5,0.0,False,19,5,high
9187,167,6.0,707611,338.2999999523163,5,2.0,True,20,5,high
9187,168,6.0,709127,498.2000000476837,2,2.0,True,21,5,high
9187,169,6.0,710582,439.59999990463257,4,2.0,False,22,5,high
9187,170,6.0,711940,348.2000000476837,2,0.0,False,23,5,high
9187,171,6.0,713292,332.7999999523163,3,2.0,False,24,5,high
9187,172,6.0,714742,429.19999980926514,1,1.0,False,25,5,high
9187,173,6.0,716100,336.7999999523163,2,0.0,False,26,5,high
9187,174,6.0,717544,414.09999990463257,4,0.0,True,27,5,high
9187,175,6.0,719056,489.2999999523163,3,0.0,True,28,5,high
9187,176,6.0,720555,471.09999990463257,5,0.0,False,29,5,high
9187,177,6.0,721896,318.60000014305115,1,2.0,True,30,5,high
9187,178,6.0,723273,349.89999985694885,1,2.0,True,31,5,high
9187,179,6.0,724630,333.30000019073486,2,0.0,False,32,5,high
9187,180,6.0,726023,364.39999985694885,5,2.0,True,33,5,high
9187,181,6.0,727481,434.0,4,2.0,False,34,5,high
9187,182,6.0,729248,739.9000000953674,3,2.0,False,35,5,high
9187,183,6.0,730584,325.7999999523163,3,0.0,True,36,5,high
9187,184,6.0,732105,504.59999990463257,1,0.0,False,37,5,high
9187,185,6.0,733456,319.90000009536743,2,2.0,True,38,5,high
9187,186,6.0,734860,379.7999999523163,4,2.0,False,39,5,high
9187,187,6.0,736225,342.10000014305115,1,0.0,False,40,5,high
9187,188,6.0,737535,298.2000000476837,5,2.0,True,41,5,high
9187,189,6.0,739000,448.59999990463257,4,2.0,False,42,5,high
9187,190,6.0,740425,405.69999980926514,5,0.0,False,43,5,high
9187,191,6.0,741692,240.89999985694885,3,2.0,False,44,5,high
9187,192,6.0,742773,56.29999995231629,3,0.0,True,45,5,high
9187,193,6.0,744152,358.40000009536743,2,0.0,False,46,5,high
9187,194,6.0,745498,332.5,5,2.0,True,47,5,high
9187,195,6.0,746852,331.7000000476837,2,2.0,True,48,5,high
9187,196,6.0,748281,400.4000000953674,1,2.0,True,49,5,high
9187,197,6.0,749643,348.2000000476837,4,0.0,True,50,5,high
9187,198,6.0,751111,444.39999985694885,4,0.0,True,51,5,high
9187,199,6.0,752526,385.2999999523163,2,0.0,False,52,5,high
9187,200,6.0,753855,309.2999999523163,5,2.0,True,53,5,high
9187,201,6.0,755194,320.59999990463257,3,2.0,False,54,5,high
9187,202,6.0,756555,351.7999999523163,2,0.0,False,55,5,high
9187,203,6.0,757887,308.80000019073486,1,2.0,True,56,5,high
9187,204,6.0,759249,343.5,3,2.0,False,57,5,high
9187,205,6.0,760589,316.39999985694885,1,0.0,False,58,5,high
9187,206,6.0,761838,220.79999995231628,5,2.0,True,59,5,high
9187,207,6.0,763365,513.1000001430511,4,2.0,False,60,5,high
9187,208,6.0,764644,257.09999990463257,3,0.0,True,61,5,high
9187,209,6.0,766086,408.89999985694885,4,0.0,True,62,5,high
9187,210,6.0,767600,490.2000000476837,1,2.0,True,63,5,high
9187,211,6.0,769064,442.89999985694885,2,0.0,False,64,5,high
9187,212,6.0,770406,329.5,5,2.0,True,65,5,high
9187,213,6.0,771771,346.40000009536743,5,0.0,False,66,5,high
9187,214,6.0,772919,137.39999985694885,4,2.0,False,67,5,high
9187,215,6.0,774013,68.29999995231628,3,0.0,True,68,5,high
9187,216,6.0,775446,403.80000019073486,2,2.0,True,69,5,high
9187,217,6.0,776830,362.5,1,0.0,False,70,5,high
9187,218,6.0,778015,156.40000009536743,3,2.0,False,71,5,high
9187,219,6.0,779433,391.39999985694885,1,0.0,False,72,5,high
9187,220,6.0,780756,308.7000000476837,2,1.0,False,73,5,high
9187,221,6.0,782122,343.69999980926514,5,2.0,True,74,5,high
9187,222,6.0,783553,411.7999999523163,4,2.0,False,75,5,high
9187,223,7.0,791427,816.3999998569489,1,2.0,False,1,6,high
9187,224,7.0,793205,747.9000000953674,2,0.0,False,2,6,high
9187,225,7.0,794731,511.5,3,0.0,False,3,6,high
9187,226,7.0,796040,286.7000000476837,4,2.0,False,4,6,high
9187,227,7.0,797359,302.40000009536743,5,0.0,True,5,6,high
9187,228,7.0,798749,369.0,6,2.0,True,6,6,high
9187,229,7.0,800119,347.7999999523163,3,0.0,False,7,6,high
9187,230,7.0,801442,304.40000009536743,1,2.0,False,8,6,high
9187,231,7.0,802726,272.59999990463257,6,0.0,False,9,6,high
9187,232,7.0,804250,495.0,4,2.0,False,10,6,high
9187,233,7.0,805896,615.7999999523163,2,2.0,False,11,6,high
9187,234,7.0,807250,334.5,2,0.0,False,12,6,high
9187,235,7.0,808334,59.29999995231629,5,1.0,False,13,6,high
9187,236,7.0,809760,401.0,4,0.0,False,14,6,high
9187,237,7.0,811091,314.40000009536743,5,2.0,False,15,6,high
9187,238,7.0,812655,557.2000000476837,6,2.0,True,16,6,high
9187,239,7.0,814242,571.7000000476837,3,0.0,False,17,6,high
9187,240,7.0,815590,329.90000009536743,1,2.0,False,18,6,high
9187,241,7.0,817027,421.4000000953674,4,0.0,False,19,6,high
9187,242,7.0,818500,450.7000000476837,1,0.0,True,20,6,high
9187,243,7.0,819880,358.2000000476837,6,2.0,True,21,6,high
9187,244,7.0,821292,389.5,2,0.0,False,22,6,high
9187,245,7.0,822705,386.7000000476837,5,0.0,True,23,6,high
9187,246,7.0,824085,356.39999985694885,3,2.0,False,24,6,high
9187,247,7.0,825412,307.7999999523163,3,2.0,False,25,6,high
9187,248,7.0,826768,323.7000000476837,1,2.0,False,26,6,high
9187,249,7.0,828058,268.7999999523163,4,2.0,False,27,6,high
9187,250,7.0,829404,317.7999999523163,3,2.0,False,28,6,high
9187,251,7.0,830756,326.5,5,2.0,False,29,6,high
9187,252,7.0,832168,386.7999999523163,6,0.0,False,30,6,high
9187,253,7.0,833595,400.30000019073486,2,0.0,False,31,6,high
9187,254,7.0,834856,238.40000009536743,2,0.0,False,32,6,high
9187,255,7.0,836092,210.29999995231628,6,0.0,False,33,6,high
9187,256,7.0,837498,392.2999999523163,5,2.0,False,34,6,high
9187,257,7.0,838524,5.700000047683716,6,0.0,False,35,6,high
9187,258,7.0,839676,125.90000009536745,1,0.0,True,36,6,high
9187,259,7.0,841028,323.7000000476837,3,2.0,False,37,6,high
9187,260,7.0,842390,333.40000009536743,4,2.0,False,38,6,high
9187,261,7.0,843622,207.6999998092652,6,0.0,False,39,6,high
9187,262,7.0,844735,91.09999990463255,2,0.0,False,40,6,high
9187,263,7.0,845763,2.799999952316284,1,2.0,False,41,6,high
9187,264,7.0,847174,395.4000000953674,4,2.0,False,42,6,high
9187,265,7.0,848762,554.2000000476837,1,0.0,True,43,6,high
9187,266,7.0,850352,560.6000001430511,5,2.0,False,44,6,high
9187,267,7.0,851697,316.60000014305115,4,0.0,False,45,6,high
9187,268,7.0,852917,189.90000009536743,2,2.0,False,46,6,high
9187,269,7.0,854468,529.2999999523163,5,2.0,False,47,6,high
9187,270,7.0,855563,63.79999995231629,3,0.0,False,48,6,high
9187,271,7.0,857209,613.5999999046326,3,0.0,False,49,6,high
9187,272,7.0,858587,345.0,6,2.0,True,50,6,high
9187,273,7.0,860200,586.1999998092651,5,2.0,False,51,6,high
9187,274,7.0,861726,497.09999990463257,4,0.0,False,52,6,high
9187,275,7.0,863212,458.6000001430512,2,1.0,True,53,6,high
9187,276,7.0,864875,633.7000000476837,1,1.0,False,54,6,high
9187,277,7.0,866227,324.7999999523163,6,2.0,True,55,6,high
9187,278,7.0,867831,573.3999998569489,1,0.0,True,56,6,high
9187,279,7.0,869184,326.7000000476837,5,1.0,False,57,6,high
9187,280,7.0,870378,163.79999995231628,3,2.0,False,58,6,high
9187,281,7.0,871585,184.2000000476837,4,1.0,True,59,6,high
9187,282,7.0,873080,469.5,4,1.0,True,60,6,high
9187,283,7.0,874449,352.59999990463257,2,0.0,False,61,6,high
9187,284,7.0,875780,305.2999999523163,3,1.0,True,62,6,high
9187,285,7.0,877171,368.39999985694885,6,1.0,False,63,6,high
9187,286,7.0,878567,365.7000000476837,2,0.0,False,64,6,high
9187,287,7.0,879934,352.69999980926514,1,1.0,False,65,6,high
9187,288,7.0,881288,332.0,4,2.0,False,66,6,high
9187,289,7.0,882676,370.59999990463257,5,0.0,True,67,6,high
9187,290,7.0,884111,414.7999999523163,5,1.0,False,68,6,high
9187,291,7.0,885513,375.0,2,2.0,False,69,6,high
9187,292,7.0,887010,482.7000000476837,5,1.0,False,70,6,high
9187,293,7.0,888296,267.39999985694885,6,0.0,False,71,6,high
9187,294,7.0,889623,305.59999990463257,1,2.0,False,72,6,high
9187,295,7.0,891167,514.1000001430511,3,1.0,True,73,6,high
9187,296,7.0,893473,1293.0999999046326,6,2.0,True,74,6,high
9187,297,7.0,895028,527.0,3,0.0,False,75,6,high
9187,298,7.0,896585,525.5,1,2.0,False,76,6,high
9187,299,7.0,898045,435.69999980926514,4,1.0,True,77,6,high
9187,300,7.0,899422,368.2999999523163,2,0.0,False,78,6,high
9187,301,7.0,900773,333.09999990463257,2,1.0,True,79,6,high
9187,302,7.0,902272,475.19999980926514,6,1.0,False,80,6,high
9187,303,7.0,903620,320.0,5,2.0,False,81,6,high
9187,304,7.0,904880,253.7000000476837,4,0.0,False,82,6,high
9187,305,7.0,906242,339.7999999523163,1,1.0,False,83,6,high
9187,306,7.0,907386,128.39999985694885,3,2.0,False,84,6,high
9187,307,7.0,908520,124.5,4,0.0,False,85,6,high
9187,308,7.0,909895,357.80000019073486,5,1.0,False,86,6,high
9187,309,7.0,911261,338.2000000476837,1,2.0,False,87,6,high
9187,310,7.0,912720,435.7999999523163,6,0.0,False,88,6,high
9187,311,7.0,914097,348.7999999523163,2,1.0,True,89,6,high
9187,312,7.0,915594,467.69999980926514,3,0.0,False,90,6,high
9187,313,8.0,922793,1484.2000000476835,1,2.0,False,1,3,low
9187,314,8.0,924794,977.5,2,1.0,True,2,3,low
9187,315,8.0,926833,1016.1999998092653,3,2.0,False,3,3,low
9187,316,8.0,928568,716.2999999523163,2,1.0,True,4,3,low
9187,317,8.0,929972,379.89999985694885,1,0.0,True,5,3,low
9187,318,8.0,931801,809.8999998569489,3,2.0,False,6,3,low
9187,319,8.0,933496,679.7000000476837,3,1.0,True,7,3,low
9187,320,8.0,934994,487.2999999523163,1,0.0,True,8,3,low
9187,321,8.0,936646,644.6999998092651,2,1.0,True,9,3,low
9187,322,8.0,938242,578.3999998569489,1,0.0,True,10,3,low
9187,323,8.0,939599,335.7000000476837,3,1.0,True,11,3,low
9187,324,8.0,941584,954.6999998092653,2,1.0,True,12,3,low
9187,325,8.0,943190,576.6000001430511,2,1.0,True,13,3,low
9187,326,8.0,944850,643.9000000953674,1,0.0,True,14,3,low
9187,327,8.0,946565,690.7999999523163,3,1.0,True,15,3,low
9187,328,8.0,948142,545.2999999523163,3,1.0,True,16,3,low
9187,329,8.0,949748,595.8999998569489,1,0.0,True,17,3,low
9187,330,8.0,951284,502.09999990463257,2,1.0,True,18,3,low
9187,331,8.0,952743,423.7000000476837,1,0.0,True,19,3,low
9187,332,8.0,954318,554.7999999523163,2,0.0,False,20,3,low
9187,333,8.0,955927,580.3999998569489,3,1.0,True,21,3,low
9187,334,8.0,957539,585.5999999046326,3,1.0,True,22,3,low
9187,335,8.0,959087,526.8999998569489,1,0.0,True,23,3,low
9187,336,8.0,960588,482.4000000953674,3,1.0,True,24,3,low
9187,337,8.0,962132,509.30000019073486,2,1.0,True,25,3,low
9187,338,8.0,963551,385.2000000476837,2,1.0,True,26,3,low
9187,339,8.0,965094,528.5,3,0.0,False,27,3,low
9187,340,8.0,966541,431.2999999523163,1,1.0,False,28,3,low
9187,341,8.0,968200,645.1000001430511,2,1.0,True,29,3,low
9187,342,8.0,969778,544.5,1,0.0,True,30,3,low
9187,343,8.0,971121,334.2999999523163,1,1.0,False,31,3,low
9187,344,8.0,972694,541.7000000476837,3,1.0,True,32,3,low
9187,345,8.0,974348,646.5,2,1.0,True,33,3,low
9187,346,8.0,975716,346.0,1,0.0,True,34,3,low
9187,347,8.0,977285,555.0,2,1.0,True,35,3,low
9187,348,8.0,978774,463.2000000476837,3,1.0,True,36,3,low
9187,349,8.0,980145,342.2000000476837,3,1.0,True,37,3,low
9187,350,8.0,981834,670.5999999046326,2,1.0,True,38,3,low
9187,351,8.0,983478,613.5,1,0.0,True,39,3,low
9187,352,8.0,985114,617.4000000953674,1,0.0,True,40,3,low
9187,353,8.0,986598,466.59999990463257,3,1.0,True,41,3,low
9187,354,8.0,988180,548.0,1,0.0,True,42,3,low
9187,355,8.0,989665,465.0,2,1.0,True,43,3,low
9187,356,8.0,991167,474.7000000476837,3,0.0,False,44,3,low
9187,357,8.0,992671,484.2000000476837,2,1.0,True,45,3,low
9187,358,9.0,1002520,1185.5999999046326,1,0.0,True,1,6,high
9187,359,9.0,1004262,724.1999998092651,2,1.0,True,2,6,high
9187,360,9.0,1006192,905.0,3,2.0,True,3,6,high
9187,361,9.0,1007897,694.8999998569489,4,0.0,False,4,6,high
9187,362,9.0,1009466,536.2000000476837,5,1.0,False,5,6,high
9187,363,9.0,1011082,592.2000000476837,6,2.0,True,6,6,high
9187,364,9.0,1012782,674.9000000953674,2,1.0,True,7,6,high
9187,365,9.0,1014533,737.2999999523163,4,0.0,False,8,6,high
9187,366,9.0,1016287,720.6000001430511,6,2.0,True,9,6,high
9187,367,9.0,1018004,702.5,3,1.0,False,10,6,high
9187,368,9.0,1019564,535.1000001430511,1,0.0,True,11,6,high
9187,369,9.0,1021421,836.5,5,1.0,False,12,6,high
9187,370,9.0,1023040,585.6000001430511,1,0.0,True,13,6,high
9187,371,9.0,1024605,554.3999998569489,4,0.0,False,14,6,high
9187,372,9.0,1026284,645.8000001907349,2,1.0,True,15,6,high
9187,373,9.0,1027856,548.5,2,1.0,True,16,6,high
9187,374,9.0,1029509,621.0,6,2.0,True,17,6,high
9187,375,9.0,1031117,590.2000000476837,5,2.0,False,18,6,high
9187,376,9.0,1032801,651.9000000953674,3,2.0,True,19,6,high
9187,377,9.0,1034300,475.5,3,1.0,False,20,6,high
9187,378,9.0,1035906,590.3999998569489,5,2.0,False,21,6,high
9187,379,9.0,1037279,339.09999990463257,1,0.0,True,22,6,high
9187,380,9.0,1039010,705.2999999523163,4,0.0,False,23,6,high
9187,381,9.0,1040654,617.5,6,2.0,True,24,6,high
9187,382,9.0,1042217,538.8000001907349,5,2.0,False,25,6,high
9187,383,9.0,1043900,672.0999999046326,2,1.0,True,26,6,high
9187,384,9.0,1045535,597.8000001907349,1,0.0,True,27,6,high
9187,385,9.0,1047249,695.7000000476837,6,2.0,True,28,6,high
9187,386,9.0,1049001,741.4000000953674,4,1.0,False,29,6,high
9187,387,9.0,1050572,545.2999999523163,3,2.0,True,30,6,high
9187,388,9.0,1052343,749.6999998092651,4,2.0,True,31,6,high
9187,389,9.0,1053961,598.6000001430511,3,2.0,True,32,6,high
9187,390,9.0,1055566,577.7999999523163,6,2.0,True,33,6,high
9187,391,9.0,1057211,618.0999999046326,2,1.0,True,34,6,high
9187,392,9.0,1058958,721.9000000953674,5,2.0,False,35,6,high
9187,393,9.0,1060492,525.0,6,2.0,True,36,6,high
9187,394,9.0,1062088,579.1000001430511,2,1.0,True,37,6,high
9187,395,9.0,1063667,557.5999999046326,1,0.0,True,38,6,high
9187,396,9.0,1065182,491.9000000953674,1,0.0,True,39,6,high
9187,397,9.0,1066974,770.0999999046326,4,2.0,True,40,6,high
9187,398,9.0,1068884,892.0,5,1.0,False,41,6,high
9187,399,9.0,1070370,462.2999999523163,5,1.0,False,42,6,high
9187,400,9.0,1071975,574.5,3,2.0,True,43,6,high
9187,401,9.0,1073687,681.0999999046326,1,0.0,True,44,6,high
9187,402,9.0,1075936,1230.0,2,0.0,False,45,6,high
9187,403,9.0,1077555,603.0999999046326,3,2.0,True,46,6,high
9187,404,9.0,1079085,493.7000000476837,6,2.0,True,47,6,high
9187,405,9.0,1080827,725.2999999523163,4,1.0,False,48,6,high
9187,406,9.0,1082535,679.5,2,1.0,True,49,6,high
9187,407,9.0,1084343,782.1000001430511,4,1.0,False,50,6,high
9187,408,9.0,1085979,618.5,1,0.0,True,51,6,high
9187,409,9.0,1087627,615.3999998569489,5,0.0,True,52,6,high
9187,410,9.0,1089496,838.5,3,2.0,True,53,6,high
9187,411,9.0,1091103,576.2999999523163,4,0.0,False,54,6,high
9187,412,9.0,1092724,600.4000000953674,2,1.0,True,55,6,high
9187,413,9.0,1094231,481.5,6,2.0,True,56,6,high
9187,414,9.0,1095975,720.0,5,0.0,True,57,6,high
9187,415,9.0,1097552,563.7000000476837,6,2.0,True,58,6,high
9187,416,9.0,1099189,612.3000001907349,3,1.0,False,59,6,high
9187,417,9.0,1100778,563.0,1,0.0,True,60,6,high
9187,418,9.0,1102187,390.4000000953674,1,0.0,True,61,6,high
9187,419,9.0,1104119,910.6000001430511,4,2.0,True,62,6,high
9187,420,9.0,1105703,554.3999998569489,3,2.0,True,63,6,high
9187,421,9.0,1107759,1033.5,5,0.0,True,64,6,high
9187,422,9.0,1109408,626.5,2,1.0,True,65,6,high
9187,423,9.0,1110966,535.2999999523163,1,0.0,True,66,6,high
9187,424,9.0,1112561,580.0,6,2.0,True,67,6,high
9187,425,9.0,1114017,420.0,6,2.0,True,68,6,high
9187,426,9.0,1115832,795.4000000953674,4,1.0,False,69,6,high
9187,427,9.0,1117683,842.7999999523163,5,0.0,True,70,6,high
9187,428,9.0,1119499,779.7000000476837,4,2.0,True,71,6,high
9187,429,9.0,1121244,716.0,5,0.0,True,72,6,high
9187,430,9.0,1122862,604.7999999523163,2,2.0,False,73,6,high
9187,431,9.0,1124668,786.0999999046326,3,2.0,True,74,6,high
9187,432,9.0,1126172,473.4000000953674,3,2.0,True,75,6,high
9187,433,9.0,1127848,668.5999999046326,2,1.0,True,76,6,high
9187,434,9.0,1129437,557.7999999523163,1,0.0,True,77,6,high
9187,435,9.0,1131042,586.5,6,2.0,False,78,6,high
9187,436,9.0,1132664,596.5,2,1.0,True,79,6,high
9187,437,9.0,1134277,593.1999998092651,3,2.0,True,80,6,high
9187,438,9.0,1135907,599.2000000476837,1,0.0,True,81,6,high
9187,439,9.0,1137534,615.2000000476837,4,2.0,True,82,6,high
9187,440,9.0,1139447,897.7000000476837,5,0.0,True,83,6,high
9187,441,9.0,1141035,562.2000000476837,6,2.0,False,84,6,high
9187,442,9.0,1142581,520.7999999523163,6,2.0,False,85,6,high
9187,443,9.0,1144210,606.2999999523163,4,0.0,False,86,6,high
9187,444,9.0,1145818,596.9000000953674,3,2.0,True,87,6,high
9187,445,9.0,1147632,778.7999999523163,5,1.0,False,88,6,high
9187,446,9.0,1149386,735.0,2,1.0,True,89,6,high
9187,447,9.0,1150930,524.5,1,0.0,True,90,6,high
9187,448,10.0,1159516,1188.5,1,0.0,False,1,3,low
9187,449,10.0,1161125,584.5999999046326,2,1.0,False,2,3,low
9187,450,10.0,1162430,280.0,3,2.0,False,3,3,low
9187,451,10.0,1163939,489.09999990463257,2,1.0,False,4,3,low
9187,452,10.0,1165168,204.09999990463257,1,0.0,False,5,3,low
9187,453,10.0,1166342,140.0,3,2.0,False,6,3,low
9187,454,10.0,1167720,359.2000000476837,3,1.0,True,7,3,low
9187,455,10.0,1169400,664.5999999046326,2,2.0,True,8,3,low
9187,456,10.0,1170973,542.0,1,0.0,False,9,3,low
9187,457,10.0,1172585,588.6000001430511,1,1.0,True,10,3,low
9187,458,10.0,1174125,529.4000000953674,2,1.0,False,11,3,low
9187,459,10.0,1175623,480.5,3,1.0,True,12,3,low
9187,460,10.0,1177000,369.39999985694885,2,2.0,True,13,3,low
9187,461,10.0,1178772,739.0,3,1.0,True,14,3,low
9187,462,10.0,1180604,812.0,1,1.0,True,15,3,low
9187,463,10.0,1182052,423.0,1,1.0,True,16,3,low
9187,464,10.0,1183748,659.4000000953674,3,2.0,False,17,3,low
9187,465,10.0,1185264,505.1000001430512,2,2.0,True,18,3,low
9187,466,10.0,1186978,700.2000000476837,3,1.0,True,19,3,low
9187,467,10.0,1188754,759.8000001907349,1,2.0,False,20,3,low
9187,468,10.0,1190477,712.0,2,2.0,True,21,3,low
9187,469,10.0,1192031,540.5,2,2.0,True,22,3,low
9187,470,10.0,1193564,512.8000001907349,3,1.0,True,23,3,low
9187,471,10.0,1195032,442.2000000476837,3,1.0,True,24,3,low
9187,472,10.0,1196501,448.19999980926514,1,1.0,True,25,3,low
9187,473,10.0,1197965,436.69999980926514,3,1.0,True,26,3,low
9187,474,10.0,1199418,428.0,2,1.0,False,27,3,low
9187,475,10.0,1201227,788.7000000476837,1,1.0,True,28,3,low
9187,476,10.0,1202809,569.0,2,1.0,False,29,3,low
9187,477,10.0,1204349,521.0,1,1.0,True,30,3,low
9187,478,10.0,1205959,588.0,3,1.0,True,31,3,low
9187,479,10.0,1207648,674.8999998569489,2,2.0,True,32,3,low
9187,480,10.0,1209159,492.89999985694885,1,1.0,True,33,3,low
9187,481,10.0,1210647,468.30000019073486,1,1.0,True,34,3,low
9187,482,10.0,1212081,401.7000000476837,3,1.0,True,35,3,low
9187,483,10.0,1213508,393.7999999523163,2,1.0,False,36,3,low
9187,484,10.0,1214954,421.69999980926514,2,2.0,True,37,3,low
9187,485,10.0,1216526,555.5,3,1.0,True,38,3,low
9187,486,10.0,1218357,809.5,1,1.0,True,39,3,low
9187,487,10.0,1219955,563.1999998092651,1,1.0,True,40,3,low
9187,488,10.0,1221658,684.0,2,2.0,True,41,3,low
9187,489,10.0,1223123,443.0,1,1.0,True,42,3,low
9187,490,10.0,1225007,857.2000000476837,3,1.0,True,43,3,low
9187,491,10.0,1226637,595.1000001430511,2,2.0,True,44,3,low
9187,492,10.0,1228118,472.4000000953674,3,1.0,True,45,3,low
9187,493,11.0,1294217,1797.1999998092651,1,0.0,False,1,2,low
9187,494,11.0,1295867,630.4000000953674,2,2.0,False,2,2,low
9187,495,11.0,1297233,339.89999985694885,1,2.0,False,3,2,low
9187,496,11.0,1298468,224.40000009536743,2,1.0,False,4,2,low
9187,497,11.0,1300104,611.4000000953674,2,1.0,False,5,2,low
9187,498,11.0,1301444,316.39999985694885,1,0.0,False,6,2,low
9187,499,11.0,1302911,442.0,1,0.0,False,7,2,low
9187,500,11.0,1304113,191.79999995231628,2,2.0,False,8,2,low
9187,501,11.0,1305448,321.7000000476837,1,1.0,True,9,2,low
9187,502,11.0,1306764,290.5,2,1.0,False,10,2,low
9187,503,11.0,1308072,297.39999985694885,2,2.0,False,11,2,low
9187,504,11.0,1309592,503.6000001430512,1,1.0,True,12,2,low
9187,505,11.0,1311071,454.0,1,1.0,True,13,2,low
9187,506,11.0,1312515,421.9000000953674,2,0.0,True,14,2,low
9187,507,11.0,1314037,499.4000000953674,1,1.0,True,15,2,low
9187,508,11.0,1315679,618.7000000476837,1,1.0,True,16,2,low
9187,509,11.0,1317050,343.0,2,0.0,True,17,2,low
9187,510,11.0,1318560,502.9000000953674,2,0.0,True,18,2,low
9187,511,11.0,1320024,438.59999990463257,1,0.0,False,19,2,low
9187,512,11.0,1321496,441.5,2,0.0,True,20,2,low
9187,513,11.0,1322833,322.90000009536743,1,1.0,True,21,2,low
9187,514,11.0,1324203,352.2000000476837,1,1.0,True,22,2,low
9187,515,11.0,1325630,405.7999999523163,2,0.0,True,23,2,low
9187,516,11.0,1327066,411.09999990463257,2,0.0,True,24,2,low
9187,517,11.0,1328579,480.39999985694885,1,1.0,True,25,2,low
9187,518,11.0,1329981,387.7999999523163,2,0.0,True,26,2,low
9187,519,11.0,1331430,426.5,2,0.0,True,27,2,low
9187,520,11.0,1332876,432.80000019073486,1,0.0,False,28,2,low
9187,521,11.0,1334402,500.0,2,0.0,True,29,2,low
9187,522,11.0,1335873,447.2000000476837,1,1.0,True,30,2,low
9187,523,13.0,1343224,946.2999999523164,1,0.0,True,1,5,high
9187,524,13.0,1344852,604.9000000953674,2,1.0,True,2,5,high
9187,525,13.0,1346550,669.2000000476837,3,2.0,False,3,5,high
9187,526,13.0,1347987,400.7999999523163,4,0.0,False,4,5,high
9187,527,13.0,1349474,468.59999990463257,5,1.0,False,5,5,high
9187,528,13.0,1350985,493.1000001430512,3,1.0,False,6,5,high
9187,529,13.0,1352452,438.7999999523163,1,1.0,False,7,5,high
9187,530,13.0,1353903,426.9000000953674,4,1.0,True,8,5,high
9187,531,13.0,1355682,752.2999999523163,2,1.0,True,9,5,high
9187,532,13.0,1357384,671.4000000953674,5,1.0,False,10,5,high
9187,533,13.0,1358928,527.2999999523163,5,0.0,True,11,5,high
9187,534,13.0,1360565,612.7000000476837,4,0.0,False,12,5,high
9187,535,13.0,1362117,544.2000000476837,3,0.0,True,13,5,high
9187,536,13.0,1363694,550.5,2,1.0,True,14,5,high
9187,537,13.0,1365255,540.7000000476837,1,1.0,False,15,5,high
9187,538,13.0,1366835,547.9000000953674,2,1.0,True,16,5,high
9187,539,13.0,1368379,518.6999998092651,1,1.0,False,17,5,high
9187,540,13.0,1370298,897.5999999046326,4,1.0,True,18,5,high
9187,541,13.0,1371694,362.5,5,0.0,True,19,5,high
9187,542,13.0,1373418,701.0999999046326,1,0.0,True,20,5,high
9187,543,13.0,1375140,696.3999998569489,3,1.0,False,21,5,high
9187,544,13.0,1376702,529.1000001430511,3,0.0,True,22,5,high
9187,545,13.0,1378442,717.0,4,1.0,True,23,5,high
9187,546,13.0,1380016,550.8999998569489,1,0.0,True,24,5,high
9187,547,13.0,1381614,569.2999999523163,2,1.0,True,25,5,high
9187,548,13.0,1383207,566.2999999523163,5,0.0,True,26,5,high
9187,549,13.0,1384732,490.7000000476837,5,0.0,True,27,5,high
9187,550,13.0,1386178,433.7000000476837,3,1.0,False,28,5,high
9187,551,13.0,1387914,707.7000000476837,4,0.0,False,29,5,high
9187,552,13.0,1389501,562.7000000476837,2,1.0,True,30,5,high
9187,553,13.0,1390894,376.09999990463257,4,1.0,True,31,5,high
9187,554,13.0,1392447,526.2000000476837,2,1.0,True,32,5,high
9187,555,13.0,1394116,645.0999999046326,1,1.0,False,33,5,high
9187,556,13.0,1395721,593.4000000953674,4,1.0,True,34,5,high
9187,557,13.0,1397341,610.5999999046326,5,0.0,True,35,5,high
9187,558,13.0,1399116,749.8999998569489,3,1.0,False,36,5,high
9187,559,13.0,1400743,605.0,1,0.0,True,37,5,high
9187,560,13.0,1402263,500.7000000476837,5,0.0,True,38,5,high
9187,561,13.0,1403776,489.4000000953674,2,0.0,False,39,5,high
9187,562,13.0,1405369,580.0,2,1.0,True,40,5,high
9187,563,13.0,1406956,559.0,3,0.0,True,41,5,high
9187,564,13.0,1408374,395.0,3,0.0,True,42,5,high
9187,565,13.0,1409850,449.5,4,1.0,True,43,5,high
9187,566,13.0,1411398,523.5999999046326,1,0.0,True,44,5,high
9187,567,13.0,1412993,580.7999999523163,5,0.0,True,45,5,high
9187,568,13.0,1414503,485.0,4,1.0,True,46,5,high
9187,569,13.0,1416113,596.4000000953674,5,0.0,True,47,5,high
9187,570,13.0,1417626,488.5,3,1.0,False,48,5,high
9187,571,13.0,1419197,554.8000001907349,2,1.0,True,49,5,high
9187,572,13.0,1420748,534.6999998092651,1,0.0,True,50,5,high
9187,573,13.0,1422494,732.7000000476837,5,0.0,True,51,5,high
9187,574,13.0,1423963,448.2000000476837,3,0.0,True,52,5,high
9187,575,13.0,1425547,569.4000000953674,1,0.0,True,53,5,high
9187,576,13.0,1427221,638.7000000476837,2,1.0,True,54,5,high
9187,577,13.0,1428962,706.1000001430511,4,1.0,True,55,5,high
9187,578,13.0,1430433,442.7999999523163,4,1.0,True,56,5,high
9187,579,13.0,1432139,675.7000000476837,5,0.0,True,57,5,high
9187,580,13.0,1433857,690.7999999523163,2,1.0,True,58,5,high
9187,581,13.0,1435496,613.8999998569489,3,0.0,True,59,5,high
9187,582,13.0,1437056,534.1000001430511,2,1.0,True,60,5,high
9187,583,13.0,1438707,629.0,1,0.0,True,61,5,high
9187,584,13.0,1440328,596.5,3,0.0,True,62,5,high
9187,585,13.0,1441857,494.7000000476837,1,0.0,True,63,5,high
9187,586,13.0,1443330,442.09999990463257,4,1.0,True,64,5,high
9187,587,13.0,1444823,477.59999990463257,4,1.0,True,65,5,high
9187,588,13.0,1446391,543.2999999523163,5,0.0,True,66,5,high
9187,589,13.0,1447950,542.3000001907349,3,1.0,False,67,5,high
9187,590,13.0,1449535,575.9000000953674,5,0.0,True,68,5,high
9187,591,13.0,1451290,738.3999998569489,2,1.0,True,69,5,high
9187,592,13.0,1452936,610.8999998569489,1,0.0,True,70,5,high
9187,593,13.0,1454490,533.1000001430511,4,1.0,True,71,5,high
9187,594,13.0,1455985,482.2999999523163,5,0.0,True,72,5,high
9187,595,13.0,1457514,498.0,1,0.0,True,73,5,high
9187,596,13.0,1458968,438.9000000953674,2,1.0,True,74,5,high
9187,597,13.0,1460547,546.7000000476837,3,0.0,True,75,5,high
9187,598,14.0,1469949,633.8999998569489,1,1.0,False,1,6,high
9187,599,14.0,1471270,304.5,2,0.0,False,2,6,high
9187,600,14.0,1472592,296.2999999523163,3,2.0,False,3,6,high
9187,601,14.0,1474156,544.6999998092651,4,1.0,False,4,6,high
9187,602,14.0,1475490,315.89999985694885,5,2.0,True,5,6,high
9187,603,14.0,1476995,496.2000000476837,6,0.0,False,6,6,high
9187,604,14.0,1478506,476.09999990463257,4,1.0,False,7,6,high
9187,605,14.0,1479849,320.10000014305115,3,2.0,False,8,6,high
9187,606,14.0,1481242,375.2000000476837,1,2.0,False,9,6,high
9187,607,14.0,1482573,310.10000014305115,6,0.0,False,10,6,high
9187,608,14.0,1483898,296.69999980926514,2,1.0,False,11,6,high
9187,609,14.0,1485339,417.5,5,0.0,False,12,6,high
9187,610,14.0,1486881,524.5999999046326,5,0.0,False,13,6,high
9187,611,14.0,1488510,602.0,3,1.0,True,14,6,high
9187,612,14.0,1490313,791.0,2,0.0,False,15,6,high
9187,613,14.0,1491934,594.0,4,1.0,False,16,6,high
9187,614,14.0,1493297,341.7000000476837,1,2.0,False,17,6,high
9187,615,14.0,1494962,632.7999999523163,4,0.0,False,18,6,high
9187,616,14.0,1496353,359.60000014305115,1,2.0,False,19,6,high
9187,617,14.0,1497672,300.39999985694885,6,1.0,True,20,6,high
9187,618,14.0,1499161,479.6000001430512,2,1.0,False,21,6,high
9187,619,14.0,1500467,284.5,1,2.0,False,22,6,high
9187,620,14.0,1501864,369.0,5,0.0,False,23,6,high
9187,621,14.0,1503309,408.7999999523163,5,1.0,False,24,6,high
9187,622,14.0,1505038,697.6000001430511,3,1.0,True,25,6,high
9187,623,14.0,1506786,731.0999999046326,6,1.0,True,26,6,high
9187,624,14.0,1508241,424.39999985694885,6,1.0,True,27,6,high
9187,625,14.0,1510049,782.5,2,1.0,False,28,6,high
9187,626,14.0,1511744,667.5999999046326,4,2.0,True,29,6,high
9187,627,14.0,1513376,616.0,3,2.0,False,30,6,high
9187,628,14.0,1514985,587.0,6,1.0,True,31,6,high
9187,629,14.0,1516884,867.7000000476837,5,1.0,False,32,6,high
9187,630,14.0,1518816,909.4000000953674,1,0.0,True,33,6,high
9187,631,14.0,1520458,612.2999999523163,4,1.0,False,34,6,high
9187,632,14.0,1522252,767.1999998092651,2,0.0,False,35,6,high
9187,633,14.0,1523971,690.5999999046326,3,2.0,False,36,6,high
9187,634,14.0,1525771,778.0,4,2.0,True,37,6,high
9187,635,14.0,1527250,454.1000001430512,3,1.0,True,38,6,high
9187,636,14.0,1528987,714.8000001907349,6,1.0,True,39,6,high
9187,637,14.0,1530440,417.30000019073486,2,1.0,False,40,6,high
9187,638,14.0,1532031,565.0,5,2.0,True,41,6,high
9187,639,14.0,1533418,367.9000000953674,1,2.0,False,42,6,high
9187,640,14.0,1534872,435.7000000476837,1,0.0,True,43,6,high
9187,641,14.0,1536533,636.0999999046326,4,1.0,False,44,6,high
9187,642,14.0,1538275,708.2000000476837,5,0.0,False,45,6,high
9187,643,14.0,1539858,558.6000001430511,6,1.0,True,46,6,high
9187,644,14.0,1541285,410.0,4,1.0,False,47,6,high
9187,645,14.0,1542960,646.7999999523163,3,1.0,True,48,6,high
9187,646,14.0,1544676,693.0999999046326,2,2.0,True,49,6,high
9187,647,14.0,1546299,589.0999999046326,3,1.0,True,50,6,high
9187,648,14.0,1547852,528.1999998092651,6,1.0,True,51,6,high
9187,649,14.0,1549294,420.39999985694885,2,2.0,True,52,6,high
9187,650,14.0,1550886,576.0,1,0.0,True,53,6,high
9187,651,14.0,1552471,554.4000000953674,2,1.0,False,54,6,high
9187,652,14.0,1554029,531.0,5,0.0,False,55,6,high
9187,653,14.0,1555651,596.5,5,2.0,True,56,6,high
9187,654,14.0,1557223,553.7999999523163,6,1.0,True,57,6,high
9187,655,14.0,1558903,654.9000000953674,4,2.0,True,58,6,high
9187,656,14.0,1560501,576.4000000953674,1,0.0,True,59,6,high
9187,657,14.0,1562085,567.7999999523163,3,1.0,True,60,6,high
9187,658,14.0,1563734,626.3999998569489,6,1.0,True,61,6,high
9187,659,14.0,1565474,713.0,2,2.0,True,62,6,high
9187,660,14.0,1567335,838.5999999046326,5,2.0,True,63,6,high
9187,661,14.0,1568951,585.7000000476837,1,0.0,True,64,6,high
9187,662,14.0,1570544,565.0,1,0.0,True,65,6,high
9187,663,14.0,1572305,742.8999998569489,4,2.0,True,66,6,high
9187,664,14.0,1573892,574.0999999046326,3,1.0,True,67,6,high
9187,665,14.0,1575408,505.4000000953674,4,1.0,False,68,6,high
9187,666,14.0,1577020,578.5999999046326,1,0.0,True,69,6,high
9187,667,14.0,1578565,509.7999999523163,3,2.0,False,70,6,high
9187,668,14.0,1580309,712.7000000476837,2,1.0,False,71,6,high
9187,669,14.0,1582062,729.7999999523163,6,1.0,True,72,6,high
9187,670,14.0,1583731,641.8999998569489,5,0.0,False,73,6,high
9187,671,14.0,1585302,557.9000000953674,6,1.0,True,74,6,high
9187,672,14.0,1586775,439.1000001430512,3,1.0,True,75,6,high
9187,673,14.0,1588405,597.0,5,2.0,True,76,6,high
9187,674,14.0,1590354,925.7999999523164,4,2.0,True,77,6,high
9187,675,14.0,1591818,455.2999999523163,4,2.0,True,78,6,high
9187,676,14.0,1593459,617.2000000476837,2,1.0,False,79,6,high
9187,677,14.0,1595115,630.5999999046326,1,0.0,True,80,6,high
9187,678,14.0,1596724,582.3999998569489,3,1.0,True,81,6,high
9187,679,14.0,1598381,629.0999999046326,5,2.0,True,82,6,high
9187,680,14.0,1600028,629.4000000953674,2,1.0,False,83,6,high
9187,681,14.0,1601602,548.4000000953674,3,1.0,True,84,6,high
9187,682,14.0,1603192,557.3999998569489,6,1.0,True,85,6,high
9187,683,14.0,1604762,548.7999999523163,5,2.0,True,86,6,high
9187,684,14.0,1606381,596.0999999046326,6,1.0,True,87,6,high
9187,685,14.0,1607978,583.8000001907349,4,2.0,True,88,6,high
9187,686,14.0,1609565,564.7999999523163,1,0.0,True,89,6,high
9187,687,14.0,1611255,677.5,2,2.0,True,90,6,high
9187,688,15.0,1619676,1047.3999998569489,1,2.0,False,1,2,low
9187,689,15.0,1621204,500.2999999523163,2,1.0,False,2,2,low
9187,690,15.0,1622624,406.0,2,0.0,False,3,2,low
9187,691,15.0,1624138,495.2999999523163,1,2.0,False,4,2,low
9187,692,15.0,1625534,361.69999980926514,2,1.0,False,5,2,low
9187,693,15.0,1626893,333.2999999523163,1,2.0,False,6,2,low
9187,694,15.0,1628560,651.7999999523163,1,0.0,False,7,2,low
9187,695,15.0,1630117,548.9000000953674,2,2.0,True,8,2,low
9187,696,15.0,1631571,431.0,1,1.0,True,9,2,low
9187,697,15.0,1632971,384.5,1,2.0,False,10,2,low
9187,698,15.0,1634299,300.7000000476837,2,2.0,True,11,2,low
9187,699,15.0,1635666,341.39999985694885,2,1.0,False,12,2,low
9187,700,15.0,1637352,659.0999999046326,1,1.0,True,13,2,low
9187,701,15.0,1638967,586.9000000953674,2,2.0,True,14,2,low
9187,702,15.0,1640441,461.4000000953674,1,1.0,True,15,2,low
9187,703,15.0,1641803,333.7999999523163,2,2.0,True,16,2,low
9187,704,15.0,1643124,304.90000009536743,2,1.0,False,17,2,low
9187,705,15.0,1644496,346.19999980926514,1,1.0,True,18,2,low
9187,706,15.0,1645929,410.4000000953674,1,1.0,True,19,2,low
9187,707,15.0,1647424,462.2000000476837,2,2.0,True,20,2,low
9187,708,15.0,1648845,410.2999999523163,2,2.0,True,21,2,low
9187,709,15.0,1650370,497.0,1,1.0,True,22,2,low
9187,710,15.0,1651881,487.69999980926514,2,1.0,False,23,2,low
9187,711,15.0,1653433,519.8999998569489,1,1.0,True,24,2,low
9187,712,15.0,1654811,345.39999985694885,1,1.0,True,25,2,low
9187,713,15.0,1656268,426.0,2,2.0,True,26,2,low
9187,714,15.0,1657599,307.10000014305115,2,2.0,True,27,2,low
9187,715,15.0,1659053,422.0,1,1.0,True,28,2,low
9187,716,15.0,1660528,445.1000001430512,2,2.0,True,29,2,low
9187,717,15.0,1662075,538.0,1,1.0,True,30,2,low
9187,718,16.0,1670582,752.7999999523163,1,1.0,False,1,5,high
9187,719,16.0,1671938,326.09999990463257,2,2.0,False,2,5,high
9187,720,16.0,1673216,264.89999985694885,3,0.0,False,3,5,high
9187,721,16.0,1674834,600.5999999046326,4,1.0,True,4,5,high
9187,722,16.0,1676389,529.5,5,2.0,False,5,5,high
9187,723,16.0,1677758,361.30000019073486,5,0.0,False,6,5,high
9187,724,16.0,1679337,562.6999998092651,4,1.0,True,7,5,high
9187,725,16.0,1681049,683.4000000953674,2,2.0,False,8,5,high
9187,726,16.0,1682758,692.6000001430511,1,0.0,True,9,5,high
9187,727,16.0,1684539,767.6999998092651,3,2.0,True,10,5,high
9187,728,16.0,1686127,572.7000000476837,1,1.0,False,11,5,high
9187,729,16.0,1687776,623.5,4,1.0,True,12,5,high
9187,730,16.0,1689221,424.0,5,1.0,True,13,5,high
9187,731,16.0,1691309,1066.2999999523165,3,0.0,False,14,5,high
9187,732,16.0,1692902,561.6999998092651,2,2.0,False,15,5,high
9187,733,16.0,1694461,550.1000001430511,4,0.0,False,16,5,high
9187,734,16.0,1696233,760.9000000953674,1,0.0,True,17,5,high
9187,735,16.0,1697872,627.0999999046326,5,1.0,True,18,5,high
9187,736,16.0,1699300,405.2999999523163,4,1.0,True,19,5,high
9187,737,16.0,1700715,378.59999990463257,3,1.0,False,20,5,high
9187,738,16.0,1702445,708.0,3,2.0,True,21,5,high
9187,739,16.0,1704030,563.7999999523163,5,1.0,True,22,5,high
9187,740,16.0,1705705,644.5,2,2.0,False,23,5,high
9187,741,16.0,1707315,576.2000000476837,2,0.0,True,24,5,high
9187,742,16.0,1709156,832.9000000953674,1,0.0,True,25,5,high
9187,743,16.0,1710592,414.0,2,0.0,True,26,5,high
9187,744,16.0,1712350,745.1000001430511,1,0.0,True,27,5,high
9187,745,16.0,1713998,624.2999999523163,4,1.0,True,28,5,high
9187,746,16.0,1715386,376.80000019073486,2,1.0,False,29,5,high
9187,747,16.0,1716798,388.7999999523163,3,1.0,False,30,5,high
9187,748,16.0,1718378,574.4000000953674,5,1.0,True,31,5,high
9187,749,16.0,1720113,717.6999998092651,1,0.0,True,32,5,high
9187,750,16.0,1721969,823.7000000476837,3,2.0,True,33,5,high
9187,751,16.0,1723531,545.2000000476837,4,1.0,True,34,5,high
9187,752,16.0,1724984,429.7999999523163,5,1.0,True,35,5,high
9187,753,16.0,1726558,548.5,2,0.0,True,36,5,high
9187,754,16.0,1728160,580.6000001430511,5,1.0,True,37,5,high
9187,755,16.0,1729910,737.2999999523163,3,2.0,True,38,5,high
9187,756,16.0,1731407,472.7999999523163,3,2.0,True,39,5,high
9187,757,16.0,1732977,557.2999999523163,1,0.0,True,40,5,high
9187,758,16.0,1734534,543.2999999523163,4,1.0,True,41,5,high
9187,759,16.0,1736118,560.5,1,0.0,True,42,5,high
9187,760,16.0,1737676,545.2999999523163,5,1.0,True,43,5,high
9187,761,16.0,1739122,428.39999985694885,4,1.0,True,44,5,high
9187,762,16.0,1740687,539.9000000953674,2,0.0,True,45,5,high
9187,763,16.0,1742229,518.3999998569489,2,0.0,True,46,5,high
9187,764,16.0,1743779,533.3999998569489,5,1.0,True,47,5,high
9187,765,16.0,1745211,403.5,3,1.0,False,48,5,high
9187,766,16.0,1746730,507.0,4,1.0,True,49,5,high
9187,767,16.0,1748333,579.0,1,0.0,True,50,5,high
9187,768,16.0,1749928,581.7000000476837,2,2.0,False,51,5,high
9187,769,16.0,1751587,628.5,1,0.0,True,52,5,high
9187,770,16.0,1753272,655.1000001430511,5,1.0,True,53,5,high
9187,771,16.0,1755009,714.9000000953674,4,1.0,True,54,5,high
9187,772,16.0,1756814,783.8999998569489,3,2.0,True,55,5,high
9187,773,16.0,1758452,607.1000001430511,5,1.0,True,56,5,high
9187,774,16.0,1760114,638.7999999523163,2,0.0,True,57,5,high
9187,775,16.0,1761636,491.4000000953674,4,1.0,True,58,5,high
9187,776,16.0,1763251,597.5,1,0.0,True,59,5,high
9187,777,16.0,1764725,451.9000000953674,1,0.0,True,60,5,high
9187,778,16.0,1766298,545.0999999046326,2,0.0,True,61,5,high
9187,779,16.0,1767739,413.9000000953674,3,2.0,True,62,5,high
9187,780,16.0,1769362,603.9000000953674,3,2.0,True,63,5,high
9187,781,16.0,1770882,499.7999999523163,5,1.0,True,64,5,high
9187,782,16.0,1772401,481.7000000476837,3,1.0,False,65,5,high
9187,783,16.0,1773812,386.2999999523163,4,1.0,True,66,5,high
9187,784,16.0,1775368,543.4000000953674,5,2.0,False,67,5,high
9187,785,16.0,1776960,571.4000000953674,4,1.0,True,68,5,high
9187,786,16.0,1778528,544.5,1,0.0,True,69,5,high
9187,787,16.0,1780101,562.5,2,0.0,True,70,5,high
9187,788,16.0,1781584,456.89999985694885,2,0.0,True,71,5,high
9187,789,16.0,1783345,749.5,4,1.0,True,72,5,high
9187,790,16.0,1784959,594.6999998092651,5,1.0,True,73,5,high
9187,791,16.0,1786428,445.2000000476837,3,2.0,True,74,5,high
9187,792,16.0,1787953,501.59999990463257,4,1.0,True,75,5,high
9187,793,17.0,1792497,538.0999999046326,1,1.0,True,1,3,low
9187,794,17.0,1793865,345.10000014305115,2,0.0,False,2,3,low
9187,795,17.0,1795379,478.89999985694885,3,2.0,True,3,3,low
9187,796,17.0,1796879,488.2999999523163,2,1.0,False,4,3,low
9187,797,17.0,1798461,558.9000000953674,1,0.0,False,5,3,low
9187,798,17.0,1800104,616.5999999046326,3,2.0,True,6,3,low
9187,799,17.0,1801580,459.9000000953674,3,2.0,True,7,3,low
9187,800,17.0,1803110,514.8999998569489,1,1.0,True,8,3,low
9187,801,17.0,1804676,556.8999998569489,2,0.0,False,9,3,low
9187,802,17.0,1806299,596.3999998569489,1,1.0,True,10,3,low
9187,803,17.0,1807897,577.8999998569489,3,2.0,True,11,3,low
9187,804,17.0,1809394,479.7999999523163,3,2.0,True,12,3,low
9187,805,17.0,1810895,471.0,2,1.0,False,13,3,low
9187,806,17.0,1812479,559.1000001430511,2,2.0,True,14,3,low
9187,807,17.0,1813981,468.5,1,1.0,True,15,3,low
9187,808,17.0,1815571,557.0,2,2.0,True,16,3,low
9187,809,17.0,1817037,447.0,3,2.0,True,17,3,low
9187,810,17.0,1818484,431.5,1,1.0,True,18,3,low
9187,811,17.0,1820051,542.0,1,1.0,True,19,3,low
9187,812,17.0,1821572,505.4000000953674,3,2.0,True,20,3,low
9187,813,17.0,1822901,304.2999999523163,2,2.0,True,21,3,low
9187,814,17.0,1824393,461.09999990463257,3,1.0,False,22,3,low
9187,815,17.0,1825787,376.4000000953674,1,1.0,True,23,3,low
9187,816,17.0,1827289,481.4000000953674,2,2.0,True,24,3,low
9187,817,17.0,1828789,476.4000000953674,1,1.0,True,25,3,low
9187,818,17.0,1830308,508.89999985694885,3,2.0,True,26,3,low
9187,819,17.0,1831964,635.0,3,2.0,True,27,3,low
9187,820,17.0,1833382,410.30000019073486,2,2.0,True,28,3,low
9187,821,17.0,1834848,433.5,2,2.0,True,29,3,low
9187,822,17.0,1836422,548.2999999523163,1,1.0,True,30,3,low
9187,823,17.0,1838007,563.7000000476837,2,1.0,False,31,3,low
9187,824,17.0,1839672,640.7000000476837,3,2.0,True,32,3,low
9187,825,17.0,1841300,598.0,1,1.0,True,33,3,low
9187,826,17.0,1842858,540.5999999046326,1,1.0,True,34,3,low
9187,827,17.0,1844286,394.7999999523163,3,2.0,True,35,3,low
9187,828,17.0,1845591,290.5,2,2.0,True,36,3,low
9187,829,17.0,1846979,363.09999990463257,3,2.0,True,37,3,low
9187,830,17.0,1848507,510.4000000953674,1,1.0,True,38,3,low
9187,831,17.0,1849867,346.7000000476837,2,2.0,True,39,3,low
9187,832,17.0,1851231,356.2000000476837,1,2.0,False,40,3,low
9187,833,17.0,1852556,295.7000000476837,3,2.0,True,41,3,low
9187,834,17.0,1853928,349.2000000476837,3,2.0,True,42,3,low
9187,835,17.0,1855291,342.09999990463257,2,2.0,True,43,3,low
9187,836,17.0,1856778,465.30000019073486,2,2.0,True,44,3,low
9187,837,17.0,1858163,365.4000000953674,1,1.0,True,45,3,low
9187,838,19.0,1863714,587.2000000476837,1,1.0,True,1,2,low
9187,839,19.0,1865238,500.9000000953674,2,1.0,True,2,2,low
9187,840,19.0,1866698,442.39999985694885,1,1.0,True,3,2,low
9187,841,19.0,1868299,578.3000001907349,1,1.0,True,4,2,low
9187,842,19.0,1869692,384.2000000476837,2,2.0,False,5,2,low
9187,843,19.0,1871081,366.0,2,1.0,True,6,2,low
9187,844,19.0,1872713,607.3999998569489,1,1.0,True,7,2,low
9187,845,19.0,1874221,491.6000001430512,2,1.0,True,8,2,low
9187,846,19.0,1875736,505.0,1,1.0,True,9,2,low
9187,847,19.0,1877079,320.80000019073486,1,1.0,True,10,2,low
9187,848,19.0,1878533,438.5,2,1.0,True,11,2,low
9187,849,19.0,1879866,311.89999985694885,2,1.0,True,12,2,low
9187,850,19.0,1881158,261.30000019073486,1,1.0,True,13,2,low
9187,851,19.0,1882466,290.0,2,1.0,True,14,2,low
9187,852,19.0,1883785,311.7000000476837,1,1.0,True,15,2,low
9187,853,19.0,1885104,303.7000000476837,1,1.0,True,16,2,low
9187,854,19.0,1886314,185.59999990463257,2,1.0,True,17,2,low
9187,855,19.0,1887362,28.59999990463257,2,1.0,True,18,2,low
9187,856,19.0,1888638,264.5,1,1.0,True,19,2,low
9187,857,19.0,1889936,280.2999999523163,2,1.0,True,20,2,low
9187,858,19.0,1891206,246.79999995231628,2,1.0,True,21,2,low
9187,859,19.0,1892474,253.60000014305115,1,1.0,True,22,2,low
9187,860,19.0,1893670,167.20000004768372,2,1.0,True,23,2,low
9187,861,19.0,1894898,211.59999990463257,1,1.0,True,24,2,low
9187,862,19.0,1896128,204.5,1,1.0,True,25,2,low
9187,863,19.0,1897154,7.299999952316284,2,1.0,True,26,2,low
9187,864,19.0,1898430,257.39999985694885,2,1.0,True,27,2,low
9187,865,19.0,1899705,248.5,1,1.0,False,28,2,low
9187,866,19.0,1901303,568.2999999523163,2,1.0,True,29,2,low
9187,867,19.0,1902757,435.19999980926514,1,1.0,False,30,2,low
9187,868,20.0,1908363,466.39999985694885,1,0.0,False,1,6,high
9187,869,20.0,1909685,289.59999990463257,2,1.0,False,2,6,high
9187,870,20.0,1911036,340.69999980926514,3,2.0,True,3,6,high
9187,871,20.0,1912550,503.4000000953674,4,1.0,False,4,6,high
9187,872,20.0,1914061,490.4000000953674,5,2.0,False,5,6,high
9187,873,20.0,1915854,776.2000000476837,6,1.0,False,6,6,high
9187,874,20.0,1917450,566.2999999523163,4,2.0,False,7,6,high
9187,875,20.0,1919098,624.5,2,1.0,False,8,6,high
9187,876,20.0,1920596,474.89999985694885,5,0.0,False,9,6,high
9187,877,20.0,1921972,353.2000000476837,3,1.0,False,10,6,high
9187,878,20.0,1923338,344.7999999523163,6,2.0,True,11,6,high
9187,879,20.0,1924980,608.7999999523163,1,0.0,False,12,6,high
9187,880,20.0,1926439,429.5,1,1.0,False,13,6,high
9187,881,20.0,1928032,562.0999999046326,2,1.0,False,14,6,high
9187,882,20.0,1929338,285.7999999523163,4,0.0,True,15,6,high
9187,883,20.0,1930882,515.1999998092651,6,2.0,True,16,6,high
9187,884,20.0,1932503,593.4000000953674,5,1.0,True,17,6,high
9187,885,20.0,1934068,546.4000000953674,6,2.0,True,18,6,high
9187,886,20.0,1935838,740.0,3,1.0,False,19,6,high
9187,887,20.0,1937285,415.0,1,0.0,False,20,6,high
9187,888,20.0,1938608,304.60000014305115,5,2.0,False,21,6,high
9187,889,20.0,1940582,962.6000001430511,3,1.0,False,22,6,high
9187,890,20.0,1941707,98.60000014305116,2,2.0,True,23,6,high
9187,891,20.0,1943110,391.9000000953674,2,2.0,True,24,6,high
9187,892,20.0,1944761,632.0,4,0.0,True,25,6,high
9187,893,20.0,1946390,608.0,6,2.0,True,26,6,high
9187,894,20.0,1947840,432.59999990463257,4,0.0,True,27,6,high
9187,895,20.0,1949381,526.5,3,1.0,False,28,6,high
9187,896,20.0,1951002,606.7000000476837,1,0.0,False,29,6,high
9187,897,20.0,1952475,446.9000000953674,3,2.0,True,30,6,high
9187,898,20.0,1953986,500.0,5,1.0,True,31,6,high
9187,899,20.0,1955492,476.7000000476837,5,1.0,True,32,6,high
9187,900,20.0,1957202,685.7000000476837,6,2.0,True,33,6,high
9187,901,20.0,1958713,495.9000000953674,1,1.0,False,34,6,high
9187,902,20.0,1960220,490.0,2,0.0,False,35,6,high
9187,903,20.0,1961716,477.2000000476837,5,1.0,True,36,6,high
9187,904,20.0,1963217,475.7999999523163,4,2.0,False,37,6,high
9187,905,20.0,1964643,396.6000001430512,2,2.0,True,38,6,high
9187,906,20.0,1966128,472.09999990463257,3,2.0,True,39,6,high
9187,907,20.0,1967609,455.1000001430512,1,2.0,True,40,6,high
9187,908,20.0,1969061,436.7999999523163,4,2.0,False,41,6,high
9187,909,20.0,1970481,398.5,4,0.0,True,42,6,high
9187,910,20.0,1971969,474.2999999523163,6,1.0,False,43,6,high
9187,911,20.0,1973820,830.2000000476837,5,1.0,True,44,6,high
9187,912,20.0,1975367,531.7999999523163,6,2.0,True,45,6,high
9187,913,20.0,1976921,540.0,3,2.0,True,46,6,high
9187,914,20.0,1978501,567.7999999523163,4,0.0,True,47,6,high
9187,915,20.0,1980201,664.7999999523163,6,2.0,True,48,6,high
9187,916,20.0,1981727,500.80000019073486,2,2.0,True,49,6,high
9187,917,20.0,1983396,660.6999998092651,1,0.0,False,50,6,high
9187,918,20.0,1985066,647.2999999523163,1,2.0,True,51,6,high
9187,919,20.0,1986555,476.4000000953674,3,2.0,True,52,6,high
9187,920,20.0,1988023,440.7000000476837,2,2.0,True,53,6,high
9187,921,20.0,1989600,551.2999999523163,5,1.0,True,54,6,high
9187,922,20.0,1991102,488.59999990463257,4,2.0,False,55,6,high
9187,923,20.0,1992862,746.2999999523163,2,2.0,True,56,6,high
9187,924,20.0,1994385,510.9000000953674,6,1.0,False,57,6,high
9187,925,20.0,1995828,427.59999990463257,1,2.0,True,58,6,high
9187,926,20.0,1997414,560.1999998092651,5,1.0,True,59,6,high
9187,927,20.0,1999115,675.7000000476837,6,2.0,True,60,6,high
9187,928,20.0,2000780,648.7000000476837,5,1.0,True,61,6,high
9187,929,20.0,2002459,666.5,3,2.0,True,62,6,high
9187,930,20.0,2004144,669.7000000476837,1,2.0,True,63,6,high
9187,931,20.0,2005682,527.8000001907349,3,2.0,True,64,6,high
9187,932,20.0,2007230,522.5999999046326,2,2.0,True,65,6,high
9187,933,20.0,2008830,573.1999998092651,4,0.0,True,66,6,high
9187,934,20.0,2010273,428.2000000476837,4,0.0,True,67,6,high
9187,935,20.0,2011973,686.2999999523163,6,2.0,True,68,6,high
9187,936,20.0,2013474,475.9000000953674,1,2.0,True,69,6,high
9187,937,20.0,2015108,611.7000000476837,3,1.0,False,70,6,high
9187,938,20.0,2016565,425.1000001430512,4,2.0,False,71,6,high
9187,939,20.0,2018134,532.1000001430511,5,1.0,True,72,6,high
9187,940,20.0,2019811,655.2999999523163,2,2.0,True,73,6,high
9187,941,20.0,2021377,529.5999999046326,1,2.0,True,74,6,high
9187,942,20.0,2022809,406.09999990463257,6,2.0,True,75,6,high
9187,943,20.0,2024211,390.5,2,2.0,True,76,6,high
9187,944,20.0,2025520,285.59999990463257,3,2.0,True,77,6,high
9187,945,20.0,2026932,376.7999999523163,1,2.0,True,78,6,high
9187,946,20.0,2028551,607.1000001430511,3,2.0,True,79,6,high
9187,947,20.0,2030219,646.3000001907349,5,1.0,True,80,6,high
9187,948,20.0,2031654,410.7000000476837,5,1.0,True,81,6,high
9187,949,20.0,2033194,521.7000000476837,4,0.0,True,82,6,high
9187,950,20.0,2034840,633.0,2,2.0,True,83,6,high
9187,951,20.0,2036266,411.59999990463257,6,2.0,True,84,6,high
9187,952,20.0,2037668,371.0,2,2.0,True,85,6,high
9187,953,20.0,2039141,450.89999985694885,5,2.0,False,86,6,high
9187,954,20.0,2040723,566.4000000953674,6,2.0,True,87,6,high
9187,955,20.0,2042133,393.59999990463257,1,2.0,True,88,6,high
9187,956,20.0,2043518,367.4000000953674,2,2.0,True,89,6,high
9187,957,20.0,2044882,330.0,3,2.0,True,90,6,high
9187,958,22.0,2050255,497.1000001430512,1,2.0,True,1,3,low
9187,959,22.0,2051819,526.5999999046326,2,1.0,True,2,3,low
9187,960,22.0,2053364,525.7000000476837,3,2.0,False,3,3,low
9187,961,22.0,2054945,560.5999999046326,3,1.0,True,4,3,low
9187,962,22.0,2056412,447.0,1,2.0,True,5,3,low
9187,963,22.0,2057778,356.0,3,1.0,True,6,3,low
9187,964,22.0,2059090,301.2000000476837,2,1.0,True,7,3,low
9187,965,22.0,2060583,472.7999999523163,1,2.0,True,8,3,low
9187,966,22.0,2061902,294.2000000476837,2,1.0,True,9,3,low
9187,967,22.0,2063219,288.7000000476837,2,1.0,True,10,3,low
9187,968,22.0,2064722,483.89999985694885,3,1.0,True,11,3,low
9187,969,22.0,2066125,377.0,1,2.0,True,12,3,low
9187,970,22.0,2067400,253.5,2,1.0,True,13,3,low
9187,971,22.0,2068743,312.10000014305115,3,1.0,True,14,3,low
9187,972,22.0,2070253,488.09999990463257,1,2.0,True,15,3,low
9187,973,22.0,2071611,338.09999990463257,1,2.0,True,16,3,low
9187,974,22.0,2073078,441.80000019073486,2,1.0,True,17,3,low
9187,975,22.0,2074600,503.80000019073486,1,2.0,True,18,3,low
9187,976,22.0,2075928,300.0,3,1.0,True,19,3,low
9187,977,22.0,2077224,273.30000019073486,3,1.0,True,20,3,low
9187,978,22.0,2078521,276.2000000476837,2,1.0,True,21,3,low
9187,979,22.0,2079953,408.5,3,1.0,True,22,3,low
9187,980,22.0,2081274,313.5,1,2.0,True,23,3,low
9187,981,22.0,2082640,338.69999980926514,2,1.0,True,24,3,low
9187,982,22.0,2084011,349.40000009536743,2,1.0,True,25,3,low
9187,983,22.0,2085366,334.7000000476837,3,1.0,True,26,3,low
9187,984,22.0,2086675,290.7000000476837,2,1.0,True,27,3,low
9187,985,22.0,2088000,302.2999999523163,1,1.0,False,28,3,low
9187,986,22.0,2089398,383.2000000476837,1,2.0,True,29,3,low
9187,987,22.0,2090812,398.2000000476837,3,1.0,True,30,3,low
9187,988,22.0,2092192,350.09999990463257,1,1.0,False,31,3,low
9187,989,22.0,2093657,439.7000000476837,2,1.0,True,32,3,low
9187,990,22.0,2094987,316.0,3,1.0,True,33,3,low
9187,991,22.0,2096409,403.5,3,1.0,True,34,3,low
9187,992,22.0,2097766,334.7000000476837,1,2.0,True,35,3,low
9187,993,22.0,2099247,452.2000000476837,3,1.0,True,36,3,low
9187,994,22.0,2100655,390.7000000476837,2,1.0,True,37,3,low
9187,995,22.0,2102109,424.7999999523163,1,2.0,True,38,3,low
9187,996,22.0,2103487,348.39999985694885,2,1.0,True,39,3,low
9187,997,22.0,2104925,410.09999990463257,2,1.0,True,40,3,low
9187,998,22.0,2106315,361.39999985694885,3,1.0,True,41,3,low
9187,999,22.0,2107756,421.0,1,2.0,True,42,3,low
9187,1000,22.0,2109190,404.39999985694885,2,1.0,True,43,3,low
9187,1001,22.0,2110674,454.0,1,2.0,True,44,3,low
9187,1002,22.0,2112203,511.80000019073486,3,1.0,True,45,3,low
9187,1003,23.0,2116964,597.4000000953674,1,0.0,False,1,5,high
9187,1004,23.0,2118424,440.2999999523163,2,1.0,True,2,5,high
9187,1005,23.0,2119914,462.6000001430512,3,2.0,False,3,5,high
9187,1006,23.0,2121527,597.0999999046326,4,2.0,False,4,5,high
9187,1007,23.0,2122907,368.0,5,1.0,True,5,5,high
9187,1008,23.0,2124243,307.5,3,1.0,False,6,5,high
9187,1009,23.0,2125698,423.0,5,1.0,True,7,5,high
9187,1010,23.0,2127461,736.2000000476837,1,0.0,False,8,5,high
9187,1011,23.0,2129249,767.7999999523163,4,0.0,False,9,5,high
9187,1012,23.0,2130411,134.20000004768372,2,2.0,False,10,5,high
9187,1013,23.0,2131743,305.2000000476837,5,2.0,False,11,5,high
9187,1014,23.0,2133185,422.19999980926514,3,2.0,False,12,5,high
9187,1015,23.0,2134420,221.3000001907349,1,1.0,False,13,5,high
9187,1016,23.0,2135769,340.2000000476837,1,0.0,False,14,5,high
9187,1017,23.0,2137277,479.2000000476837,4,1.0,True,15,5,high
9187,1018,23.0,2138773,479.2999999523163,3,1.0,False,16,5,high
9187,1019,23.0,2140219,434.7000000476837,2,2.0,False,17,5,high
9187,1020,23.0,2141742,495.4000000953674,2,1.0,True,18,5,high
9187,1021,23.0,2143417,659.2999999523163,5,1.0,True,19,5,high
9187,1022,23.0,2144789,348.7000000476837,2,1.0,True,20,5,high
9187,1023,23.0,2146358,554.6000001430511,4,0.0,False,21,5,high
9187,1024,23.0,2148052,677.7999999523163,5,1.0,True,22,5,high
9187,1025,23.0,2149479,397.7999999523163,1,1.0,False,23,5,high
9187,1026,23.0,2150979,470.59999990463257,3,2.0,False,24,5,high
9187,1027,23.0,2152391,389.2999999523163,4,2.0,False,25,5,high
9187,1028,23.0,2153921,516.5999999046326,3,0.0,True,26,5,high
9187,1029,23.0,2155374,430.4000000953674,2,0.0,False,27,5,high
9187,1030,23.0,2156679,290.7999999523163,1,1.0,False,28,5,high
9187,1031,23.0,2158113,416.5,4,0.0,False,29,5,high
9187,1032,23.0,2159418,283.59999990463257,5,1.0,True,30,5,high
9187,1033,23.0,2160739,308.0,5,1.0,True,31,5,high
9187,1034,23.0,2162203,436.09999990463257,4,0.0,False,32,5,high
9187,1035,23.0,2164042,811.8000001907349,3,0.0,True,33,5,high
9187,1036,23.0,2165650,596.2999999523163,1,2.0,True,34,5,high
9187,1037,23.0,2167162,488.2999999523163,2,2.0,False,35,5,high
9187,1038,23.0,2168803,606.4000000953674,2,0.0,False,36,5,high
9187,1039,23.0,2170360,546.7999999523163,4,0.0,False,37,5,high
9187,1040,23.0,2172065,678.6000001430511,2,1.0,True,38,5,high
9187,1041,23.0,2173768,682.3999998569489,3,2.0,False,39,5,high
9187,1042,23.0,2175293,505.5,5,1.0,True,40,5,high
9187,1043,23.0,2176939,619.9000000953674,1,2.0,True,41,5,high
9187,1044,23.0,2178655,690.5,3,2.0,False,42,5,high
9187,1045,23.0,2180262,583.5,1,2.0,True,43,5,high
9187,1046,23.0,2181638,358.19999980926514,5,0.0,False,44,5,high
9187,1047,23.0,2183096,439.5,4,0.0,False,45,5,high
9187,1048,23.0,2184509,385.59999990463257,4,1.0,True,46,5,high
9187,1049,23.0,2185889,369.0,2,1.0,True,47,5,high
9187,1050,23.0,2187348,433.09999990463257,1,1.0,False,48,5,high
9187,1051,23.0,2188825,449.7000000476837,3,1.0,False,49,5,high
9187,1052,23.0,2190310,467.7000000476837,2,2.0,False,50,5,high
9187,1053,23.0,2191640,296.7999999523163,3,1.0,False,51,5,high
9187,1054,23.0,2193084,417.2999999523163,5,1.0,True,52,5,high
9187,1055,23.0,2194452,338.40000009536743,1,1.0,False,53,5,high
9187,1056,23.0,2195997,537.4000000953674,1,2.0,True,54,5,high
9187,1057,23.0,2197653,635.2999999523163,4,2.0,False,55,5,high
9187,1058,23.0,2198988,321.0,5,1.0,True,56,5,high
9187,1059,23.0,2200567,552.3999998569489,3,1.0,False,57,5,high
9187,1060,23.0,2202327,746.6999998092651,4,1.0,True,58,5,high
9187,1061,23.0,2203864,506.6000001430512,2,2.0,False,59,5,high
9187,1062,23.0,2205360,479.4000000953674,5,1.0,True,60,5,high
9187,1063,23.0,2207015,639.4000000953674,4,1.0,True,61,5,high
9187,1064,23.0,2208473,430.0,3,2.0,False,62,5,high
9187,1065,23.0,2210463,967.7999999523164,1,2.0,True,63,5,high
9187,1066,23.0,2211862,387.0,5,0.0,False,64,5,high
9187,1067,23.0,2213256,374.89999985694885,2,1.0,True,65,5,high
9187,1068,23.0,2214785,499.9000000953674,5,1.0,True,66,5,high
9187,1069,23.0,2216276,471.7999999523163,2,1.0,True,67,5,high
9187,1070,23.0,2218472,1163.8999998569489,4,1.0,True,68,5,high
9187,1071,23.0,2220210,725.7000000476837,3,0.0,True,69,5,high
9187,1072,23.0,2221684,455.0,3,0.0,True,70,5,high
9187,1073,23.0,2223201,484.5,1,2.0,True,71,5,high
9187,1074,23.0,2224854,621.8000001907349,2,1.0,True,72,5,high
9187,1075,23.0,2226295,407.4000000953674,2,1.0,True,73,5,high
9187,1076,23.0,2228120,789.5,1,2.0,True,74,5,high
9187,1077,23.0,2229744,588.5,5,1.0,True,75,5,high
10001,1,1.0,356981,1113.0,1,0.0,True,1,4,high
10001,2,1.0,358615,631.0,2,1.0,False,2,4,high
10001,3,1.0,360178,559.0,2,2.0,True,3,4,high
10001,4,1.0,361544,362.0,1,0.0,True,4,4,high
10001,5,1.0,362939,393.0,2,2.0,True,5,4,high
10001,6,1.0,364293,351.0,1,0.0,True,6,4,high
10001,7,1.0,365858,563.0,1,2.0,False,7,4,high
10001,8,1.0,367370,509.0,2,2.0,True,8,4,high
10001,9,1.0,368878,505.0,2,2.0,True,9,4,high
10001,10,1.0,370360,420.0,1,0.0,True,10,4,high
10001,11,1.0,371796,434.0,2,2.0,True,11,4,high
10001,12,1.0,373273,474.0,1,0.0,True,12,4,high
10001,13,1.0,374926,649.0,1,0.0,True,13,4,high
10001,14,1.0,376425,493.0,2,2.0,True,14,4,high
10001,15,1.0,377871,441.0,2,2.0,True,15,4,high
10001,16,1.0,379341,465.0,1,0.0,True,16,4,high
10001,17,1.0,381168,823.0,2,2.0,True,17,4,high
10001,18,1.0,382669,498.0,1,0.0,True,18,4,high
10001,19,1.0,384195,523.0,1,0.0,True,19,4,high
10001,20,1.0,385867,668.0,2,2.0,True,20,4,high
10001,21,1.0,392276,898.0,4,0.0,True,21,4,high
10001,22,1.0,393878,599.0,3,2.0,True,22,4,high
10001,23,1.0,395327,446.0,3,0.0,False,23,4,high
10001,24,1.0,396883,502.0,4,0.0,True,24,4,high
10001,25,1.0,398261,375.0,4,2.0,False,25,4,high
10001,26,1.0,399819,553.0,3,2.0,True,26,4,high
10001,27,1.0,401246,425.0,4,0.0,True,27,4,high
10001,28,1.0,402740,491.0,3,2.0,True,28,4,high
10001,29,1.0,404197,452.0,3,2.0,True,29,4,high
10001,30,1.0,405879,621.0,4,0.0,True,30,4,high
10001,31,1.0,407332,450.0,4,0.0,True,31,4,high
10001,32,1.0,408806,471.0,3,2.0,True,32,4,high
10001,33,1.0,410508,699.0,4,0.0,True,33,4,high
10001,34,1.0,412093,582.0,3,2.0,True,34,4,high
10001,35,1.0,413613,516.0,4,0.0,True,35,4,high
10001,36,1.0,415292,676.0,4,0.0,True,36,4,high
10001,37,1.0,416791,470.0,3,2.0,True,37,4,high
10001,38,1.0,418972,1177.0,3,0.0,False,38,4,high
10001,39,1.0,420715,739.0,4,0.0,True,39,4,high
10001,40,2.0,439090,10.0,1,1.0,True,1,3,low
10001,41,2.0,440568,475.0,1,1.0,True,2,3,low
10001,42,2.0,442034,463.0,1,1.0,True,3,3,low
10001,43,2.0,443479,408.0,1,1.0,True,4,3,low
10001,44,2.0,444891,407.0,1,1.0,True,5,3,low
10001,45,2.0,446270,377.0,1,1.0,False,6,3,low
10001,46,2.0,447595,322.0,1,2.0,False,7,3,low
10001,47,2.0,449162,564.0,1,0.0,True,8,3,low
10001,48,2.0,450655,490.0,1,0.0,True,9,3,low
10001,49,2.0,451997,341.0,1,0.0,True,10,3,low
10001,50,2.0,453464,463.0,1,0.0,False,11,3,low
10001,51,2.0,455301,834.0,1,1.0,False,12,3,low
10001,52,2.0,456716,413.0,1,2.0,True,13,3,low
10001,53,2.0,459065,1347.0,1,2.0,True,14,3,low
10001,54,2.0,460474,405.0,1,2.0,True,15,3,low
10001,55,2.0,461927,451.0,1,2.0,True,16,3,low
10001,56,2.0,463565,634.0,1,2.0,True,17,3,low
10001,57,2.0,465039,470.0,1,2.0,False,18,3,low
10001,58,2.0,466355,314.0,1,1.0,True,19,3,low
10001,59,2.0,467996,637.0,1,1.0,True,20,3,low
10001,60,2.0,469364,364.0,1,1.0,True,21,3,low
10001,61,2.0,470815,447.0,1,1.0,True,22,3,low
10001,62,2.0,472320,500.0,1,1.0,False,23,3,low
10001,63,2.0,473549,225.0,1,0.0,True,24,3,low
10001,64,2.0,480509,782.0,3,0.0,True,25,3,low
10001,65,2.0,481875,362.0,3,0.0,True,26,3,low
10001,66,2.0,483231,352.0,3,0.0,True,27,3,low
10001,67,2.0,484549,315.0,3,0.0,True,28,3,low
10001,68,2.0,485903,352.0,3,0.0,True,29,3,low
10001,69,2.0,487404,498.0,3,0.0,False,30,3,low
10001,70,2.0,488665,258.0,3,1.0,True,31,3,low
10001,71,2.0,489949,281.0,3,1.0,True,32,3,low
10001,72,2.0,491236,285.0,3,1.0,True,33,3,low
10001,73,2.0,492511,271.0,3,1.0,False,34,3,low
10001,74,2.0,493759,246.0,3,2.0,False,35,3,low
10001,75,2.0,495185,422.0,3,0.0,True,36,3,low
10001,76,2.0,496695,506.0,3,0.0,True,37,3,low
10001,77,2.0,498054,357.0,3,0.0,True,38,3,low
10001,78,2.0,499518,462.0,3,0.0,True,39,3,low
10001,79,2.0,501258,737.0,3,0.0,True,40,3,low
10001,80,2.0,502952,690.0,3,0.0,False,41,3,low
10001,81,2.0,504060,105.0,3,1.0,False,42,3,low
10001,82,2.0,505538,472.0,3,2.0,True,43,3,low
10001,83,2.0,507124,582.0,3,2.0,True,44,3,low
10001,84,2.0,508545,417.0,3,2.0,True,45,3,low
10001,85,2.0,510021,473.0,3,2.0,True,46,3,low
10001,86,2.0,511520,448.0,3,2.0,False,47,3,low
10001,87,2.0,512598,75.0,3,1.0,False,48,3,low
10001,88,3.0,2425564,624.0,1,0.0,False,1,2,low
10001,89,3.0,2427150,582.0,2,2.0,False,2,2,low
10001,90,3.0,2428979,827.0,1,1.0,False,3,2,low
10001,91,3.0,2430664,681.0,1,2.0,True,4,2,low
10001,92,3.0,2432308,639.0,2,0.0,True,5,2,low
10001,93,3.0,2433910,599.0,2,0.0,True,6,2,low
10001,94,3.0,2435563,649.0,1,2.0,True,7,2,low
10001,95,3.0,2437102,537.0,2,0.0,True,8,2,low
10001,96,3.0,2438475,370.0,1,2.0,True,9,2,low
10001,97,3.0,2440161,684.0,2,0.0,True,10,2,low
10001,98,3.0,2441735,571.0,2,2.0,False,11,2,low
10001,99,3.0,2443597,859.0,1,1.0,False,12,2,low
10001,100,3.0,2444930,330.0,1,0.0,False,13,2,low
10001,101,3.0,2447171,1239.0,2,1.0,False,14,2,low
10001,102,3.0,2448730,555.0,2,2.0,False,15,2,low
10001,103,3.0,2451653,1920.0,1,2.0,True,16,2,low
10001,104,3.0,2453416,761.0,2,0.0,True,17,2,low
10001,105,3.0,2455418,945.0,1,2.0,True,18,2,low
10001,106,3.0,2457435,968.0,1,2.0,True,19,2,low
10001,107,3.0,2458959,520.0,2,0.0,True,20,2,low
10001,108,3.0,2460637,677.0,2,2.0,False,21,2,low
10001,109,3.0,2462509,868.0,1,2.0,True,22,2,low
10001,110,3.0,2463853,343.0,2,0.0,True,23,2,low
10001,111,3.0,2465722,867.0,1,2.0,True,24,2,low
10001,112,3.0,2467203,477.0,1,0.0,False,25,2,low
10001,113,3.0,2469049,842.0,2,0.0,True,26,2,low
10001,114,3.0,2470414,362.0,1,2.0,True,27,2,low
10001,115,3.0,2472917,1499.0,1,2.0,True,28,2,low
10001,116,3.0,2474695,776.0,2,0.0,True,29,2,low
10001,117,3.0,2476129,431.0,2,0.0,True,30,2,low
10001,118,4.0,2492041,747.0,1,2.0,True,1,6,high
10001,119,4.0,2493649,605.0,2,1.0,True,2,6,high
10001,120,4.0,2495651,944.0,3,0.0,False,3,6,high
10001,121,4.0,2497668,996.0,4,1.0,False,4,6,high
10001,122,4.0,2499390,718.0,5,2.0,False,5,6,high
10001,123,4.0,2501487,1094.0,6,0.0,False,6,6,high
10001,124,4.0,2502962,473.0,3,2.0,False,7,6,high
10001,125,4.0,2504444,480.0,2,1.0,True,8,6,high
10001,126,4.0,2506110,663.0,1,1.0,False,9,6,high
10001,127,4.0,2507556,442.0,5,2.0,False,10,6,high
10001,128,4.0,2508921,362.0,4,0.0,False,11,6,high
10001,129,4.0,2510586,664.0,1,2.0,True,12,6,high
10001,130,4.0,2512378,789.0,6,2.0,True,13,6,high
10001,131,4.0,2514087,706.0,6,2.0,True,14,6,high
10001,132,4.0,2515660,569.0,5,1.0,True,15,6,high
10001,133,4.0,2517321,658.0,3,1.0,True,16,6,high
10001,134,4.0,2518850,525.0,5,1.0,True,17,6,high
10001,135,4.0,2520392,539.0,2,1.0,True,18,6,high
10001,136,4.0,2521892,487.0,4,1.0,False,19,6,high
10001,137,4.0,2523224,329.0,4,2.0,True,20,6,high
10001,138,4.0,2524696,469.0,2,2.0,False,21,6,high
10001,139,4.0,2525767,42.0,1,0.0,False,22,6,high
10001,140,4.0,2527606,836.0,6,1.0,False,23,6,high
10001,141,4.0,2528920,311.0,3,2.0,False,24,6,high
10001,142,4.0,2530304,380.0,2,0.0,False,25,6,high
10001,143,4.0,2531812,505.0,3,1.0,True,26,6,high
10001,144,4.0,2533349,534.0,6,2.0,True,27,6,high
10001,145,4.0,2535127,775.0,5,2.0,False,28,6,high
10001,146,4.0,2536395,265.0,1,1.0,False,29,6,high
10001,147,4.0,2537848,450.0,4,0.0,False,30,6,high
10001,148,4.0,2539448,596.0,2,2.0,False,31,6,high
10001,149,4.0,2541243,792.0,1,1.0,False,32,6,high
10001,150,4.0,2542773,527.0,6,2.0,True,33,6,high
10001,151,4.0,2544626,851.0,6,2.0,True,34,6,high
10001,152,4.0,2546768,1139.0,3,2.0,False,35,6,high
10001,153,4.0,2548734,963.0,4,1.0,False,36,6,high
10001,154,4.0,2550960,1223.0,1,0.0,False,37,6,high
10001,155,4.0,2552878,916.0,4,1.0,False,38,6,high
10001,156,4.0,2554451,571.0,5,2.0,False,39,6,high
10001,157,4.0,2555960,498.0,3,2.0,False,40,6,high
10001,158,4.0,2558603,1641.0,5,2.0,False,41,6,high
10001,159,4.0,2560795,1189.0,2,1.0,True,42,6,high
10001,160,4.0,2562367,570.0,2,1.0,True,43,6,high
10001,161,4.0,2564667,1297.0,1,1.0,False,44,6,high
10001,162,4.0,2566818,1149.0,6,2.0,True,45,6,high
10001,163,4.0,2569165,1344.0,4,2.0,True,46,6,high
10001,164,4.0,2570900,731.0,3,2.0,False,47,6,high
10001,165,4.0,2572584,680.0,6,2.0,True,48,6,high
10001,166,4.0,2574343,755.0,5,0.0,False,49,6,high
10001,167,4.0,2576122,775.0,4,2.0,True,50,6,high
10001,168,4.0,2578094,970.0,5,2.0,False,51,6,high
10001,169,4.0,2579971,875.0,2,1.0,True,52,6,high
10001,170,4.0,2581897,924.0,1,1.0,False,53,6,high
10001,171,4.0,2583747,847.0,3,2.0,False,54,6,high
10001,172,4.0,2585660,909.0,5,1.0,True,55,6,high
10001,173,4.0,2587431,768.0,1,1.0,False,56,6,high
10001,174,4.0,2589234,799.0,2,1.0,True,57,6,high
10001,175,4.0,2591110,873.0,6,2.0,True,58,6,high
10001,176,4.0,2594135,,4,-1.0,False,59,6,high
10001,177,4.0,2596000,862.0,3,2.0,False,60,6,high
10001,178,4.0,2597484,479.0,3,1.0,True,61,6,high
10001,179,4.0,2599026,538.0,1,0.0,False,62,6,high
10001,180,4.0,2600789,761.0,6,2.0,True,63,6,high
10001,181,4.0,2602515,724.0,6,2.0,True,64,6,high
10001,182,4.0,2604144,626.0,5,2.0,False,65,6,high
10001,183,4.0,2605607,459.0,4,1.0,False,66,6,high
10001,184,4.0,2607655,1044.0,2,1.0,True,67,6,high
10001,185,4.0,2609396,739.0,4,1.0,False,68,6,high
10001,186,4.0,2610845,447.0,3,2.0,False,69,6,high
10001,187,4.0,2612409,510.0,2,0.0,False,70,6,high
10001,188,4.0,2613875,463.0,5,1.0,True,71,6,high
10001,189,4.0,2615383,505.0,1,2.0,True,72,6,high
10001,190,4.0,2616782,395.0,3,2.0,False,73,6,high
10001,191,4.0,2618087,301.0,1,1.0,False,74,6,high
10001,192,4.0,2619587,497.0,6,0.0,False,75,6,high
10001,193,4.0,2621054,463.0,5,1.0,True,76,6,high
10001,194,4.0,2622575,518.0,4,1.0,False,77,6,high
10001,195,4.0,2623868,290.0,2,2.0,False,78,6,high
10001,196,4.0,2625505,634.0,5,0.0,False,79,6,high
10001,197,4.0,2627401,893.0,2,2.0,False,80,6,high
10001,198,4.0,2629385,982.0,4,1.0,False,81,6,high
10001,199,4.0,2631352,965.0,6,1.0,False,82,6,high
10001,200,4.0,2633073,717.0,6,2.0,True,83,6,high
10001,201,4.0,2634797,721.0,3,2.0,False,84,6,high
10001,202,4.0,2637002,1202.0,1,0.0,False,85,6,high
10001,203,4.0,2638934,930.0,1,1.0,False,86,6,high
10001,204,4.0,2640864,927.0,4,2.0,True,87,6,high
10001,205,4.0,2643257,1389.0,3,0.0,False,88,6,high
10001,206,4.0,2645539,1279.0,5,2.0,False,89,6,high
10001,207,4.0,2647402,860.0,4,2.0,True,90,6,high
10002,1,1.0,576660,1141.399999976158,1,0.0,True,1,4,high
10002,2,1.0,578028,360.4000000357628,2,1.0,False,2,4,high
10002,3,1.0,579716,679.7999999523163,1,0.0,True,3,4,high
10002,4,1.0,581241,517.2000000476837,1,0.0,True,4,4,high
10002,5,1.0,582641,393.3000000119209,2,2.0,True,5,4,high
10002,6,1.0,584104,456.1999999880791,2,2.0,True,6,4,high
10002,7,1.0,585504,393.0,1,0.0,True,7,4,high
10002,8,1.0,586795,282.39999997615814,2,2.0,True,8,4,high
10002,9,1.0,588284,480.9000000357628,2,2.0,True,9,4,high
10002,10,1.0,589796,504.2000000476837,1,0.0,True,10,4,high
10002,11,1.0,591571,766.3000000119209,2,2.0,True,11,4,high
10002,12,1.0,593022,443.5,1,0.0,True,12,4,high
10002,13,1.0,594417,388.1999999880791,1,0.0,True,13,4,high
10002,14,1.0,595765,339.30000001192093,2,2.0,True,14,4,high
10002,15,1.0,597185,411.5,1,0.0,True,15,4,high
10002,16,1.0,598750,557.1000000238419,2,2.0,True,16,4,high
10002,17,1.0,600131,372.5,2,0.0,False,17,4,high
10002,18,1.0,601438,299.60000002384186,1,2.0,False,18,4,high
10002,19,1.0,602862,416.0,1,0.0,True,19,4,high
10002,20,1.0,604273,404.10000002384186,2,2.0,True,20,4,high
10002,21,1.0,609880,642.1999999880791,4,1.0,True,21,4,high
10002,22,1.0,611710,821.1999999880791,3,2.0,True,22,4,high
10002,23,1.0,613372,653.3000000119209,4,1.0,True,23,4,high
10002,24,1.0,615022,642.3000000119209,4,1.0,True,24,4,high
10002,25,1.0,616658,627.3999999761581,3,2.0,True,25,4,high
10002,26,1.0,618265,598.8999999761581,3,2.0,True,26,4,high
10002,27,1.0,619764,491.0,4,1.0,True,27,4,high
10002,28,1.0,621110,337.80000001192093,4,2.0,False,28,4,high
10002,29,1.0,622558,439.8000000119209,3,2.0,True,29,4,high
10002,30,1.0,623975,408.6999999880791,4,1.0,True,30,4,high
10002,31,1.0,625544,562.5,3,2.0,True,31,4,high
10002,32,1.0,627122,570.8000000119209,3,2.0,True,32,4,high
10002,33,1.0,628571,439.8999999761581,4,1.0,True,33,4,high
10002,34,1.0,630005,426.3000000119209,3,2.0,True,34,4,high
10002,35,1.0,631577,565.3000000119209,3,2.0,True,35,4,high
10002,36,1.0,632916,330.69999998807907,4,2.0,False,36,4,high
10002,37,1.0,634472,548.0,4,1.0,True,37,4,high
10002,38,1.0,635927,446.8000000119209,3,2.0,True,38,4,high
10002,39,1.0,637487,551.9000000357628,4,1.0,True,39,4,high
10002,40,2.0,652018,709.6000000238419,1,1.0,False,1,3,low
10002,41,2.0,653278,253.69999998807907,1,2.0,False,2,3,low
10002,42,2.0,654457,172.0,1,0.0,True,3,3,low
10002,43,2.0,655750,284.30000001192093,1,0.0,True,4,3,low
10002,44,2.0,657049,291.0999999642372,1,0.0,True,5,3,low
10002,45,2.0,658341,284.19999998807907,1,0.0,True,6,3,low
10002,46,2.0,659652,302.30000001192093,1,0.0,True,7,3,low
10002,47,2.0,660895,234.3999999761581,1,0.0,False,8,3,low
10002,48,2.0,662207,305.5,1,2.0,True,9,3,low
10002,49,2.0,663424,209.0,1,2.0,True,10,3,low
10002,50,2.0,664540,107.69999998807909,1,2.0,True,11,3,low
10002,51,2.0,665595,47.89999997615814,1,2.0,True,12,3,low
10002,52,2.0,666748,144.10000002384186,1,2.0,False,13,3,low
10002,53,2.0,668300,544.0999999642372,1,0.0,True,14,3,low
10002,54,2.0,669457,149.10000002384186,1,0.0,True,15,3,low
10002,55,2.0,670717,252.3999999761581,1,0.0,True,16,3,low
10002,56,2.0,671976,251.0999999642372,1,0.0,True,17,3,low
10002,57,2.0,673166,182.3999999761581,1,0.0,False,18,3,low
10002,58,2.0,674339,165.80000001192093,1,1.0,False,19,3,low
10002,59,2.0,675719,373.3000000119209,1,2.0,True,20,3,low
10002,60,2.0,676880,153.70000004768372,1,2.0,True,21,3,low
10002,61,2.0,678040,151.89999997615814,1,2.0,True,22,3,low
10002,62,2.0,679148,100.5,1,2.0,True,23,3,low
10002,63,2.0,680229,72.80000001192093,1,2.0,False,24,3,low
10002,64,2.0,685709,1479.9000000357628,3,0.0,False,25,3,low
10002,65,2.0,687087,369.5,3,1.0,True,26,3,low
10002,66,2.0,688270,174.29999995231628,3,1.0,True,27,3,low
10002,67,2.0,689501,224.30000001192093,3,1.0,True,28,3,low
10002,68,2.0,690712,204.0,3,1.0,True,29,3,low
10002,69,2.0,691926,204.9000000357628,3,1.0,True,30,3,low
10002,70,2.0,693193,259.30000001192093,3,1.0,False,31,3,low
10002,71,2.0,694408,208.10000002384183,3,2.0,False,32,3,low
10002,72,2.0,695562,145.60000002384186,3,0.0,True,33,3,low
10002,73,2.0,696684,114.10000002384186,3,0.0,True,34,3,low
10002,74,2.0,697871,179.10000002384186,3,0.0,True,35,3,low
10002,75,2.0,699097,218.60000002384183,3,0.0,True,36,3,low
10002,76,2.0,700413,307.5999999642372,3,0.0,False,37,3,low
10002,77,2.0,701633,210.80000001192093,3,1.0,True,38,3,low
10002,78,2.0,702702,61.30000001192093,3,1.0,True,39,3,low
10002,79,2.0,703818,107.69999998807909,3,1.0,True,40,3,low
10002,80,2.0,705064,238.3999999761581,3,1.0,False,41,3,low
10002,81,2.0,706261,188.80000001192093,3,2.0,False,42,3,low
10002,82,2.0,707403,134.80000001192093,3,0.0,True,43,3,low
10002,83,2.0,708480,69.60000002384186,3,0.0,True,44,3,low
10002,84,2.0,709594,105.5999999642372,3,0.0,True,45,3,low
10002,85,2.0,711029,427.6999999880791,3,0.0,True,46,3,low
10002,86,2.0,712201,163.5999999642372,3,0.0,False,47,3,low
10002,87,2.0,713416,207.60000002384183,3,2.0,True,48,3,low
10002,88,3.0,740029,277.5,1,0.0,True,1,2,low
10002,89,3.0,741251,214.10000002384183,2,0.0,True,2,2,low
10002,90,3.0,742498,239.7000000476837,2,0.0,True,3,2,low
10002,91,3.0,743695,189.0999999642372,1,0.0,True,4,2,low
10002,92,3.0,744758,55.10000002384186,2,0.0,True,5,2,low
10002,93,3.0,745850,83.5,1,0.0,True,6,2,low
10002,94,3.0,747064,206.10000002384183,1,0.0,True,7,2,low
10002,95,3.0,748189,116.9000000357628,2,0.0,True,8,2,low
10002,96,3.0,749294,98.89999997615814,1,0.0,True,9,2,low
10002,97,3.0,750462,160.5,2,0.0,True,10,2,low
10002,98,3.0,751694,224.19999998807907,2,0.0,True,11,2,low
10002,99,3.0,752835,133.80000001192093,1,0.0,True,12,2,low
10002,100,3.0,754069,225.9000000357628,1,0.0,True,13,2,low
10002,101,3.0,755142,65.60000002384186,2,0.0,True,14,2,low
10002,102,3.0,756228,79.19999998807907,1,0.0,True,15,2,low
10002,103,3.0,757265,28.69999998807907,1,0.0,True,16,2,low
10002,104,3.0,758435,161.89999997615814,2,0.0,True,17,2,low
10002,105,3.0,759558,115.89999997615814,2,0.0,True,18,2,low
10002,106,3.0,760583,17.399999976158142,1,0.0,True,19,2,low
10002,107,3.0,762000,408.6999999880791,2,0.0,True,20,2,low
10002,108,3.0,763104,95.80000001192091,1,0.0,True,21,2,low
10002,109,3.0,764210,98.70000004768372,1,0.0,True,22,2,low
10002,110,3.0,765302,83.0,2,0.0,True,23,2,low
10002,111,3.0,766360,50.0,2,0.0,True,24,2,low
10002,112,3.0,767564,197.0,1,0.0,True,25,2,low
10002,113,3.0,768641,69.30000001192093,2,0.0,True,26,2,low
10002,114,3.0,769720,71.09999996423721,2,0.0,False,27,2,low
10002,115,3.0,771009,281.60000002384186,1,1.0,False,28,2,low
10002,116,3.0,772565,548.9000000357628,2,0.0,False,29,2,low
10002,117,3.0,774121,547.3999999761581,1,0.0,True,30,2,low
10002,118,4.0,785519,435.8999999761581,1,0.0,False,1,2,low
10002,119,4.0,786596,68.09999996423721,2,1.0,False,2,2,low
10002,120,4.0,787884,280.0,1,1.0,False,3,2,low
10002,121,4.0,789154,261.60000002384186,2,2.0,False,4,2,low
10002,122,4.0,790453,291.69999998807907,2,0.0,True,5,2,low
10002,123,4.0,791832,371.3000000119209,1,2.0,True,6,2,low
10002,124,4.0,793223,382.5,1,2.0,True,7,2,low
10002,125,4.0,794642,410.1999999880791,2,0.0,True,8,2,low
10002,126,4.0,796115,466.3000000119209,2,0.0,True,9,2,low
10002,127,4.0,797519,395.60000002384186,1,2.0,True,10,2,low
10002,128,4.0,799036,509.3999999761581,2,0.0,True,11,2,low
10002,129,4.0,800228,183.9000000357628,1,2.0,True,12,2,low
10002,130,4.0,801563,327.5,1,2.0,True,13,2,low
10002,131,4.0,803019,446.8000000119209,2,0.0,True,14,2,low
10002,132,4.0,804691,665.0,2,0.0,True,15,2,low
10002,133,4.0,806114,415.4000000357628,1,2.0,True,16,2,low
10002,134,4.0,807663,541.4000000357628,2,2.0,False,17,2,low
10002,135,4.0,809069,398.3000000119209,1,2.0,True,18,2,low
10002,136,4.0,810606,528.4000000357628,1,2.0,True,19,2,low
10002,137,4.0,812013,398.1999999880791,2,0.0,True,20,2,low
10002,138,4.0,813349,328.80000001192093,2,0.0,True,21,2,low
10002,139,4.0,814820,464.0999999642372,1,2.0,True,22,2,low
10002,140,4.0,816267,438.8999999761581,2,2.0,False,23,2,low
10002,141,4.0,817760,484.3000000119209,1,2.0,True,24,2,low
10002,142,4.0,819212,443.2000000476837,1,2.0,True,25,2,low
10002,143,4.0,820493,273.9000000357628,2,0.0,True,26,2,low
10002,144,4.0,821875,373.1999999880791,1,2.0,True,27,2,low
10002,145,4.0,823269,386.1999999880791,1,2.0,True,28,2,low
10002,146,4.0,824566,289.9000000357628,2,0.0,True,29,2,low
10002,147,4.0,826036,461.0,2,0.0,True,30,2,low
10002,148,5.0,847996,471.9000000357628,1,1.0,False,1,6,high
10002,149,5.0,849554,550.1999999880791,2,2.0,False,2,6,high
10002,150,5.0,851415,852.9000000357628,3,0.0,False,3,6,high
10002,151,5.0,852961,538.1000000238419,4,0.0,False,4,6,high
10002,152,5.0,854200,230.30000001192093,5,0.0,False,5,6,high
10002,153,5.0,855243,35.80000001192093,6,0.0,False,6,6,high
10002,154,5.0,856523,272.80000001192093,1,0.0,False,7,6,high
10002,155,5.0,857934,402.60000002384186,6,1.0,False,8,6,high
10002,156,5.0,859475,532.8999999761581,4,1.0,False,9,6,high
10002,157,5.0,860826,343.19999998807907,3,1.0,True,10,6,high
10002,158,5.0,862502,669.0,2,2.0,False,11,6,high
10002,159,5.0,864354,844.6000000238419,4,2.0,True,12,6,high
10002,160,5.0,866983,1622.100000023842,5,2.0,False,13,6,high
10002,161,5.0,868476,484.5999999642372,3,1.0,True,14,6,high
10002,162,5.0,870171,687.3999999761581,6,0.0,False,15,6,high
10002,163,5.0,872639,1460.2999999523165,2,0.0,True,16,6,high
10002,164,5.0,875146,1500.7999999523165,1,0.0,False,17,6,high
10002,165,5.0,876815,661.3000000119209,1,1.0,False,18,6,high
10002,166,5.0,879206,1382.5999999642372,5,2.0,False,19,6,high
10002,167,5.0,881044,831.8000000119209,5,2.0,False,20,6,high
10002,168,5.0,882842,789.5,4,2.0,True,21,6,high
10002,169,5.0,884337,487.5,3,1.0,True,22,6,high
10002,170,5.0,886205,860.5,2,0.0,True,23,6,high
10002,171,5.0,888131,917.8000000119208,5,0.0,False,24,6,high
10002,172,5.0,890155,1016.600000023842,6,1.0,False,25,6,high
10002,173,5.0,891964,800.1999999880791,2,0.0,True,26,6,high
10002,174,5.0,893805,832.0,6,2.0,True,27,6,high
10002,175,5.0,895383,569.8000000119209,3,1.0,True,28,6,high
10002,176,5.0,897553,1162.5,1,2.0,True,29,6,high
10002,177,5.0,899306,745.1999999880791,4,2.0,True,30,6,high
10002,178,5.0,901017,704.1999999880791,2,0.0,True,31,6,high
10002,179,5.0,902795,769.0,3,1.0,True,32,6,high
10002,180,5.0,905107,1303.600000023842,4,2.0,True,33,6,high
10002,181,5.0,907213,1098.2000000476835,5,2.0,False,34,6,high
10002,182,5.0,909189,967.6999999880792,6,0.0,False,35,6,high
10002,183,5.0,912199,,1,-1.0,False,36,6,high
10002,184,5.0,913601,393.5999999642372,1,2.0,True,37,6,high
10002,185,5.0,915110,501.8999999761581,5,1.0,True,38,6,high
10002,186,5.0,916632,514.0999999642372,1,2.0,True,39,6,high
10002,187,5.0,918188,548.1000000238419,2,0.0,True,40,6,high
10002,188,5.0,919959,762.6999999880791,6,0.0,False,41,6,high
10002,189,5.0,921394,425.7999999523163,3,1.0,True,42,6,high
10002,190,5.0,922949,547.0,3,1.0,True,43,6,high
10002,191,5.0,924444,487.3000000119209,4,2.0,True,44,6,high
10002,192,5.0,926238,785.8000000119209,2,0.0,True,45,6,high
10002,193,5.0,928287,1040.0,5,2.0,False,46,6,high
10002,194,5.0,929769,475.0,4,2.0,True,47,6,high
10002,195,5.0,931385,608.5999999642372,5,1.0,True,48,6,high
10002,196,5.0,933125,732.6000000238419,6,1.0,False,49,6,high
10002,197,5.0,934685,551.5999999642372,1,2.0,True,50,6,high
10002,198,5.0,936621,928.4000000357628,6,2.0,True,51,6,high
10002,199,5.0,938148,518.7000000476837,3,1.0,True,52,6,high
10002,200,5.0,939711,555.1999999880791,4,2.0,True,53,6,high
10002,201,5.0,941073,354.39999997615814,4,2.0,True,54,6,high
10002,202,5.0,942625,543.3999999761581,2,0.0,True,55,6,high
10002,203,5.0,944273,639.6999999880791,6,2.0,True,56,6,high
10002,204,5.0,945969,687.8000000119209,1,2.0,True,57,6,high
10002,205,5.0,947449,472.60000002384186,2,2.0,False,58,6,high
10002,206,5.0,949163,705.8000000119209,5,2.0,False,59,6,high
10002,207,5.0,950857,687.0,6,2.0,True,60,6,high
10002,208,5.0,952319,454.8999999761581,3,1.0,True,61,6,high
10002,209,5.0,953756,429.60000002384186,3,1.0,True,62,6,high
10002,210,5.0,955281,516.5,5,1.0,True,63,6,high
10002,211,5.0,956835,545.3000000119209,4,2.0,True,64,6,high
10002,212,5.0,958255,412.3999999761581,2,0.0,True,65,6,high
10002,213,5.0,959982,718.8999999761581,6,2.0,True,66,6,high
10002,214,5.0,961575,585.0,2,0.0,True,67,6,high
10002,215,5.0,963145,562.1999999880791,1,2.0,True,68,6,high
10002,216,5.0,964629,476.6999999880791,4,2.0,True,69,6,high
10002,217,5.0,966152,514.6000000238419,3,1.0,True,70,6,high
10002,218,5.0,967743,583.0999999642372,1,2.0,True,71,6,high
10002,219,5.0,969555,804.3000000119209,5,1.0,True,72,6,high
10002,220,5.0,971152,588.1000000238419,1,2.0,True,73,6,high
10002,221,5.0,972555,394.0999999642372,4,1.0,False,74,6,high
10002,222,5.0,973952,388.5999999642372,2,0.0,True,75,6,high
10002,223,5.0,976023,1062.4000000357628,5,2.0,False,76,6,high
10002,224,5.0,977698,666.6000000238419,6,2.0,True,77,6,high
10002,225,5.0,979357,650.2999999523163,2,0.0,True,78,6,high
10002,226,5.0,980865,500.8000000119209,1,2.0,True,79,6,high
10002,227,5.0,982430,556.2999999523163,3,1.0,True,80,6,high
10002,228,5.0,983912,475.1999999880791,3,1.0,True,81,6,high
10002,229,5.0,985365,445.60000002384186,6,2.0,True,82,6,high
10002,230,5.0,986757,385.0,5,2.0,False,83,6,high
10002,231,5.0,988189,423.2999999523163,4,2.0,True,84,6,high
10002,232,5.0,989619,423.10000002384186,5,1.0,True,85,6,high
10002,233,5.0,991225,597.5,1,2.0,True,86,6,high
10002,234,5.0,992741,508.10000002384186,4,2.0,True,87,6,high
10002,235,5.0,994428,679.6999999880791,6,2.0,True,88,6,high
10002,236,5.0,995762,325.9000000357628,2,0.0,True,89,6,high
10002,237,5.0,997394,623.6000000238419,3,1.0,True,90,6,high
10002,238,7.0,1017498,783.8000000119209,1,1.0,False,1,5,high
10002,239,7.0,1018788,281.69999998807907,2,1.0,True,2,5,high
10002,240,7.0,1020139,342.4000000357628,3,2.0,False,3,5,high
10002,241,7.0,1021742,594.6999999880791,4,2.0,False,4,5,high
10002,242,7.0,1023477,728.0,5,0.0,False,5,5,high
10002,243,7.0,1024898,412.2999999523163,1,0.0,True,6,5,high
10002,244,7.0,1026976,1070.800000011921,3,0.0,False,7,5,high
10002,245,7.0,1028575,591.1999999880791,2,1.0,True,8,5,high
10002,246,7.0,1030138,554.6999999880791,2,1.0,True,9,5,high
10002,247,7.0,1031855,708.1999999880791,4,2.0,False,10,5,high
10002,248,7.0,1034259,1396.5,5,2.0,True,11,5,high
10002,249,7.0,1036148,882.5,4,0.0,False,12,5,high
10002,250,7.0,1038073,916.9000000357628,1,0.0,True,13,5,high
10002,251,7.0,1039752,671.0999999642372,5,1.0,False,14,5,high
10002,252,7.0,1041366,607.5,3,2.0,False,15,5,high
10002,253,7.0,1042906,530.6999999880791,2,1.0,True,16,5,high
10002,254,7.0,1044613,699.9000000357628,1,1.0,False,17,5,high
10002,255,7.0,1046670,1048.199999988079,3,2.0,False,18,5,high
10002,256,7.0,1048421,744.6000000238419,5,1.0,False,19,5,high
10002,257,7.0,1050094,665.1999999880791,4,0.0,False,20,5,high
10002,258,7.0,1051705,604.0,4,2.0,False,21,5,high
10002,259,7.0,1053332,618.3999999761581,3,1.0,True,22,5,high
10002,260,7.0,1054812,471.5999999642372,2,1.0,True,23,5,high
10002,261,7.0,1056243,422.8000000119209,3,1.0,True,24,5,high
10002,262,7.0,1058179,929.0,1,1.0,False,25,5,high
10002,263,7.0,1060157,970.8000000119208,4,1.0,True,26,5,high
10002,264,7.0,1062838,1673.0,5,2.0,True,27,5,high
10002,265,7.0,1064528,681.6999999880791,1,0.0,True,28,5,high
10002,266,7.0,1065963,426.8999999761581,5,2.0,True,29,5,high
10002,267,7.0,1067590,617.8999999761581,5,2.0,True,30,5,high
10002,268,7.0,1069379,780.6999999880791,3,1.0,True,31,5,high
10002,269,7.0,1070767,378.60000002384186,2,1.0,True,32,5,high
10002,270,7.0,1072325,549.5,2,1.0,True,33,5,high
10002,271,7.0,1074041,707.8000000119209,1,0.0,True,34,5,high
10002,272,7.0,1075658,608.2999999523163,4,2.0,False,35,5,high
10002,273,7.0,1077131,465.5,2,1.0,True,36,5,high
10002,274,7.0,1078762,623.0,1,0.0,True,37,5,high
10002,275,7.0,1080737,966.5,3,1.0,True,38,5,high
10002,276,7.0,1082276,531.6000000238419,5,1.0,False,39,5,high
10002,277,7.0,1083684,400.3000000119209,4,1.0,True,40,5,high
10002,278,7.0,1085063,370.5,5,2.0,True,41,5,high
10002,279,7.0,1086761,690.8999999761581,3,1.0,True,42,5,high
10002,280,7.0,1088407,638.2999999523163,1,0.0,True,43,5,high
10002,281,7.0,1089791,376.60000002384186,2,1.0,True,44,5,high
10002,282,7.0,1091147,348.30000001192093,4,1.0,True,45,5,high
10002,283,7.0,1092580,424.6999999880791,3,1.0,True,46,5,high
10002,284,7.0,1094224,637.5,4,1.0,True,47,5,high
10002,285,7.0,1095859,626.6999999880791,4,1.0,True,48,5,high
10002,286,7.0,1097437,570.7000000476837,2,1.0,True,49,5,high
10002,287,7.0,1098999,553.0,5,2.0,True,50,5,high
10002,288,7.0,1100630,622.8000000119209,1,0.0,True,51,5,high
10002,289,7.0,1101947,309.0,3,1.0,True,52,5,high
10002,290,7.0,1103389,434.0,5,1.0,False,53,5,high
10002,291,7.0,1105036,639.3000000119209,5,2.0,True,54,5,high
10002,292,7.0,1106553,508.3000000119209,1,0.0,True,55,5,high
10002,293,7.0,1108091,530.0,2,1.0,True,56,5,high
10002,294,7.0,1110445,1345.100000023842,4,1.0,True,57,5,high
10002,295,7.0,1111832,378.2999999523163,2,1.0,True,58,5,high
10002,296,7.0,1113315,475.8000000119209,3,1.0,True,59,5,high
10002,297,7.0,1114732,409.0,5,1.0,False,60,5,high
10002,298,7.0,1116381,640.4000000357628,4,1.0,True,61,5,high
10002,299,7.0,1117867,479.3000000119209,3,1.0,True,62,5,high
10002,300,7.0,1119487,611.5,1,0.0,True,63,5,high
10002,301,7.0,1121036,540.6000000238419,1,0.0,True,64,5,high
10002,302,7.0,1122503,458.1999999880791,5,2.0,True,65,5,high
10002,303,7.0,1123928,418.0,1,0.0,True,66,5,high
10002,304,7.0,1125397,460.6999999880791,2,1.0,True,67,5,high
10002,305,7.0,1126764,359.30000001192093,2,1.0,True,68,5,high
10002,306,7.0,1128314,543.3000000119209,3,1.0,True,69,5,high
10002,307,7.0,1130059,736.4000000357628,4,1.0,True,70,5,high
10002,308,7.0,1131452,385.3000000119209,5,2.0,True,71,5,high
10002,309,7.0,1132886,426.5,2,1.0,False,72,5,high
10002,310,7.0,1134520,627.0,4,2.0,False,73,5,high
10002,311,7.0,1135952,423.1999999880791,3,1.0,True,74,5,high
10002,312,7.0,1137365,403.8000000119209,1,1.0,False,75,5,high
10002,313,8.0,1152826,812.8000000119209,1,1.0,True,1,3,low
10002,314,8.0,1154459,625.3999999761581,2,1.0,False,2,3,low
10002,315,8.0,1156359,891.8999999761581,3,0.0,False,3,3,low
10002,316,8.0,1157627,260.19999998807907,2,0.0,False,4,3,low
10002,317,8.0,1159051,414.5,1,1.0,True,5,3,low
10002,318,8.0,1160440,380.6999999880791,3,2.0,False,6,3,low
10002,319,8.0,1161686,236.80000001192093,3,1.0,True,7,3,low
10002,320,8.0,1163058,364.10000002384186,1,1.0,True,8,3,low
10002,321,8.0,1164384,318.19999998807907,2,1.0,False,9,3,low
10002,322,8.0,1166235,842.2000000476837,2,2.0,True,10,3,low
10002,323,8.0,1167607,363.8000000119209,3,1.0,True,11,3,low
10002,324,8.0,1168968,353.0999999642372,1,1.0,True,12,3,low
10002,325,8.0,1170468,492.10000002384186,3,2.0,False,13,3,low
10002,326,8.0,1171902,425.8999999761581,1,1.0,True,14,3,low
10002,327,8.0,1173849,939.8000000119208,2,1.0,False,15,3,low
10002,328,8.0,1175451,594.8000000119209,2,0.0,False,16,3,low
10002,329,8.0,1176956,497.1999999880791,1,1.0,True,17,3,low
10002,330,8.0,1178796,830.8000000119209,3,0.0,False,18,3,low
10002,331,8.0,1181081,1276.199999988079,2,2.0,True,19,3,low
10002,332,8.0,1183171,1081.5,3,0.0,False,20,3,low
10002,333,8.0,1184665,485.1999999880791,1,1.0,True,21,3,low
10002,334,8.0,1186201,527.5,1,1.0,True,22,3,low
10002,335,8.0,1187538,328.0,3,1.0,True,23,3,low
10002,336,8.0,1188974,427.0999999642372,2,2.0,True,24,3,low
10002,337,8.0,1190343,360.8000000119209,2,2.0,True,25,3,low
10002,338,8.0,1192029,677.5,1,1.0,True,26,3,low
10002,339,8.0,1193390,352.4000000357628,2,1.0,False,27,3,low
10002,340,8.0,1195248,851.0,3,2.0,False,28,3,low
10002,341,8.0,1196974,717.7000000476837,3,0.0,False,29,3,low
10002,342,8.0,1198425,443.0999999642372,1,1.0,True,30,3,low
10002,343,8.0,1199683,250.10000002384183,3,1.0,True,31,3,low
10002,344,8.0,1201868,1176.5,2,0.0,False,32,3,low
10002,345,8.0,1203279,402.5999999642372,1,1.0,True,33,3,low
10002,346,8.0,1204614,326.9000000357628,3,1.0,True,34,3,low
10002,347,8.0,1206098,475.0,1,1.0,True,35,3,low
10002,348,8.0,1207469,362.10000002384186,2,1.0,False,36,3,low
10002,349,8.0,1208932,455.3000000119209,2,2.0,True,37,3,low
10002,350,8.0,1210235,295.5,1,1.0,True,38,3,low
10002,351,8.0,1211594,349.5,3,1.0,True,39,3,low
10002,352,8.0,1213010,408.4000000357628,3,2.0,False,40,3,low
10002,353,8.0,1214538,519.8000000119209,2,2.0,True,41,3,low
10002,354,8.0,1215827,282.0,3,1.0,True,42,3,low
10002,355,8.0,1216972,136.39999997615814,1,1.0,True,43,3,low
10002,356,8.0,1218279,297.5,2,1.0,False,44,3,low
10002,357,8.0,1219787,498.8999999761581,1,1.0,True,45,3,low
10002,358,9.0,1233798,637.2000000476837,1,0.0,False,1,6,high
10002,359,9.0,1234926,120.10000002384186,2,0.0,False,2,6,high
10002,360,9.0,1236145,210.30000001192093,3,1.0,False,3,6,high
10002,361,9.0,1237942,788.6999999880791,4,0.0,False,4,6,high
10002,362,9.0,1239161,210.69999998807907,5,0.0,True,5,6,high
10002,363,9.0,1240993,823.5999999642372,6,0.0,False,6,6,high
10002,364,9.0,1242557,554.7999999523163,2,0.0,False,7,6,high
10002,365,9.0,1244384,819.2999999523163,6,0.0,False,8,6,high
10002,366,9.0,1245916,522.6999999880791,3,1.0,False,9,6,high
10002,367,9.0,1248561,1637.0,1,1.0,False,10,6,high
10002,368,9.0,1250424,854.5,4,2.0,False,11,6,high
10002,369,9.0,1252110,676.6000000238419,5,0.0,True,12,6,high
10002,370,9.0,1253750,631.6999999880791,1,2.0,True,13,6,high
10002,371,9.0,1255133,372.5,5,0.0,True,14,6,high
10002,372,9.0,1256761,620.2999999523163,2,1.0,False,15,6,high
10002,373,9.0,1258387,617.7999999523163,4,2.0,False,16,6,high
10002,374,9.0,1259686,290.0999999642372,1,2.0,True,17,6,high
10002,375,9.0,1261814,1119.4000000357628,6,2.0,True,18,6,high
10002,376,9.0,1264304,1480.699999988079,3,2.0,True,19,6,high
10002,377,9.0,1265722,411.3000000119209,3,2.0,True,20,6,high
10002,378,9.0,1268162,1431.9000000357628,2,2.0,True,21,6,high
10002,379,9.0,1269665,495.3000000119209,5,0.0,True,22,6,high
10002,380,9.0,1271954,1279.300000011921,3,2.0,True,23,6,high
10002,381,9.0,1273650,688.5,6,2.0,True,24,6,high
10002,382,9.0,1274966,307.89999997615814,4,2.0,False,25,6,high
10002,383,9.0,1276637,663.6999999880791,5,0.0,True,26,6,high
10002,384,9.0,1278228,583.0999999642372,6,2.0,True,27,6,high
10002,385,9.0,1279900,662.7999999523163,1,2.0,True,28,6,high
10002,386,9.0,1281612,704.3000000119209,2,2.0,True,29,6,high
10002,387,9.0,1283212,591.1999999880791,4,1.0,True,30,6,high
10002,388,9.0,1284806,586.3999999761581,4,1.0,True,31,6,high
10002,389,9.0,1286347,531.5,1,2.0,True,32,6,high
10002,390,9.0,1287935,579.7000000476837,3,2.0,True,33,6,high
10002,391,9.0,1289320,377.6999999880791,6,2.0,True,34,6,high
10002,392,9.0,1290768,440.3999999761581,5,2.0,False,35,6,high
10002,393,9.0,1292135,357.39999997615814,2,2.0,True,36,6,high
10002,394,9.0,1293722,579.3000000119209,5,0.0,True,37,6,high
10002,395,9.0,1295428,698.5,1,2.0,True,38,6,high
10002,396,9.0,1296975,538.9000000357628,6,2.0,True,39,6,high
10002,397,9.0,1298570,586.5,6,2.0,True,40,6,high
10002,398,9.0,1300166,587.5999999642372,3,2.0,True,41,6,high
10002,399,9.0,1301981,807.1000000238419,4,1.0,True,42,6,high
10002,400,9.0,1303562,571.0,3,2.0,True,43,6,high
10002,401,9.0,1305116,546.3000000119209,2,2.0,True,44,6,high
10002,402,9.0,1306625,500.0,2,2.0,True,45,6,high
10002,403,9.0,1308285,651.6999999880791,5,0.0,True,46,6,high
10002,404,9.0,1309826,532.5,3,2.0,True,47,6,high
10002,405,9.0,1311360,525.3000000119209,1,2.0,True,48,6,high
10002,406,9.0,1313086,718.0,4,1.0,True,49,6,high
10002,407,9.0,1314689,594.5999999642372,3,2.0,True,50,6,high
10002,408,9.0,1316346,648.5999999642372,6,2.0,True,51,6,high
10002,409,9.0,1317942,586.1999999880791,1,2.0,True,52,6,high
10002,410,9.0,1319708,758.0999999642372,5,0.0,True,53,6,high
10002,411,9.0,1321295,577.8999999761581,4,1.0,True,54,6,high
10002,412,9.0,1322671,368.60000002384186,2,2.0,True,55,6,high
10002,413,9.0,1324150,469.5,4,1.0,True,56,6,high
10002,414,9.0,1325532,373.5,6,2.0,True,57,6,high
10002,415,9.0,1326954,412.5,2,2.0,True,58,6,high
10002,416,9.0,1328509,545.6999999880791,5,0.0,True,59,6,high
10002,417,9.0,1330010,493.10000002384186,1,2.0,True,60,6,high
10002,418,9.0,1331581,563.0999999642372,3,2.0,True,61,6,high
10002,419,9.0,1333042,453.5,3,2.0,True,62,6,high
10002,420,9.0,1334527,475.5,1,2.0,True,63,6,high
10002,421,9.0,1336017,482.60000002384186,5,0.0,True,64,6,high
10002,422,9.0,1337523,497.1999999880791,4,1.0,True,65,6,high
10002,423,9.0,1338976,444.6999999880791,6,2.0,True,66,6,high
10002,424,9.0,1341162,1176.2999999523165,2,2.0,True,67,6,high
10002,425,9.0,1342621,452.8999999761581,6,2.0,True,68,6,high
10002,426,9.0,1344321,691.8999999761581,4,1.0,True,69,6,high
10002,427,9.0,1345842,511.60000002384186,4,1.0,True,70,6,high
10002,428,9.0,1347439,590.8999999761581,1,2.0,True,71,6,high
10002,429,9.0,1348962,515.9000000357628,2,2.0,True,72,6,high
10002,430,9.0,1350428,457.6999999880791,3,2.0,True,73,6,high
10002,431,9.0,1351923,485.8000000119209,5,0.0,True,74,6,high
10002,432,9.0,1353530,598.8999999761581,1,2.0,True,75,6,high
10002,433,9.0,1355032,493.5,5,1.0,False,76,6,high
10002,434,9.0,1356546,506.3000000119209,5,0.0,True,77,6,high
10002,435,9.0,1358030,475.60000002384186,6,2.0,True,78,6,high
10002,436,9.0,1359539,499.8000000119209,2,2.0,True,79,6,high
10002,437,9.0,1361132,584.1999999880791,6,2.0,True,80,6,high
10002,438,9.0,1362690,550.2999999523163,4,1.0,True,81,6,high
10002,439,9.0,1364310,610.5,2,2.0,True,82,6,high
10002,440,9.0,1365965,645.6999999880791,1,2.0,True,83,6,high
10002,441,9.0,1367681,707.3000000119209,3,2.0,True,84,6,high
10002,442,9.0,1369115,425.7999999523163,3,2.0,False,85,6,high
10002,443,9.0,1371017,894.3000000119209,6,2.0,True,86,6,high
10002,444,9.0,1372689,662.8000000119209,4,1.0,True,87,6,high
10002,445,9.0,1374241,543.6999999880791,5,0.0,True,88,6,high
10002,446,9.0,1375791,541.3000000119209,2,2.0,True,89,6,high
10002,447,9.0,1377491,692.6000000238419,4,1.0,True,90,6,high
10002,448,10.0,1390695,802.1999999880791,1,0.0,False,1,5,high
10002,449,10.0,1391898,195.9000000357628,2,0.0,True,2,5,high
10002,450,10.0,1393662,754.8000000119209,3,0.0,False,3,5,high
10002,451,10.0,1395150,479.10000002384186,4,0.0,True,4,5,high
10002,452,10.0,1396993,834.6999999880791,5,1.0,True,5,5,high
10002,453,10.0,1398501,498.10000002384186,5,1.0,True,6,5,high
10002,454,10.0,1400133,624.1000000238419,2,0.0,True,7,5,high
10002,455,10.0,1401805,663.1000000238419,4,0.0,True,8,5,high
10002,456,10.0,1403374,560.6999999880791,1,2.0,True,9,5,high
10002,457,10.0,1405043,660.8000000119209,3,2.0,False,10,5,high
10002,458,10.0,1406905,852.2000000476837,4,0.0,True,11,5,high
10002,459,10.0,1408901,987.100000023842,5,1.0,True,12,5,high
10002,460,10.0,1410627,717.6999999880791,2,0.0,True,13,5,high
10002,461,10.0,1413285,1649.0,3,1.0,True,14,5,high
10002,462,10.0,1414885,590.6999999880791,2,0.0,True,15,5,high
10002,463,10.0,1416594,699.5,1,2.0,True,16,5,high
10002,464,10.0,1417991,387.60000002384186,3,1.0,True,17,5,high
10002,465,10.0,1420705,1705.0,1,2.0,True,18,5,high
10002,466,10.0,1422321,606.9000000357628,4,0.0,True,19,5,high
10002,467,10.0,1424191,861.7000000476837,4,0.0,True,20,5,high
10002,468,10.0,1426076,877.2000000476837,5,1.0,True,21,5,high
10002,469,10.0,1427744,658.5,3,1.0,True,22,5,high
10002,470,10.0,1429328,574.7000000476837,2,0.0,True,23,5,high
10002,471,10.0,1431072,736.0,5,1.0,True,24,5,high
10002,472,10.0,1432675,594.9000000357628,1,2.0,True,25,5,high
10002,473,10.0,1434356,672.0,3,1.0,True,26,5,high
10002,474,10.0,1436050,686.0,1,2.0,True,27,5,high
10002,475,10.0,1437658,599.4000000357628,2,0.0,True,28,5,high
10002,476,10.0,1439342,674.5,4,0.0,True,29,5,high
10002,477,10.0,1440989,639.6000000238419,5,1.0,True,30,5,high
10002,478,10.0,1442477,479.0,5,1.0,True,31,5,high
10002,479,10.0,1443974,489.0,4,1.0,False,32,5,high
10002,480,10.0,1445545,561.1000000238419,3,1.0,True,33,5,high
10002,481,10.0,1447030,475.3999999761581,2,0.0,True,34,5,high
10002,482,10.0,1448540,502.3999999761581,1,1.0,False,35,5,high
10002,483,10.0,1451550,,4,-1.0,False,36,5,high
10002,484,10.0,1453209,650.5,1,2.0,True,37,5,high
10002,485,10.0,1454791,573.5,3,1.0,True,38,5,high
10002,486,10.0,1456303,502.4000000357628,2,0.0,True,39,5,high
