sona_id,trial_in_experiment,block,trial_in_block,set_size,load_condition,stimulus,key_press,key_answer,correct,rt,rt_category,timeout,time_elapsed,trial_index,phase_type,set,reversal_crit,counter,trial
8932.0,1.0,3.0,1.0,2.0,low,1,0.0,1.0,0.0,572.0,medium,0,624630,202,main_task,7.0,18.0,0.0,1.0
8932.0,2.0,3.0,2.0,2.0,low,2,1.0,2.0,0.0,614.2999999523163,medium,0,626248,204,main_task,7.0,14.0,0.0,2.0
8932.0,3.0,3.0,3.0,2.0,low,1,2.0,1.0,0.0,610.1999999284744,medium,0,627862,206,main_task,7.0,18.0,0.0,3.0
8932.0,4.0,3.0,4.0,2.0,low,2,2.0,2.0,1.0,1100.899999976158,slow,0,629968,208,main_task,7.0,14.0,1.0,4.0
8932.0,5.0,3.0,5.0,2.0,low,2,2.0,2.0,1.0,457.8999999761581,fast,0,631430,210,main_task,7.0,14.0,2.0,5.0
8932.0,6.0,3.0,6.0,2.0,low,1,0.0,1.0,0.0,661.1000000238419,medium,0,633096,212,main_task,7.0,18.0,0.0,6.0
8932.0,7.0,3.0,7.0,2.0,low,1,1.0,1.0,1.0,454.3000000715256,fast,0,634556,214,main_task,7.0,18.0,1.0,7.0
8932.0,8.0,3.0,8.0,2.0,low,2,2.0,2.0,1.0,527.1999999284744,medium,0,636088,216,main_task,7.0,14.0,3.0,8.0
8932.0,9.0,3.0,9.0,2.0,low,2,2.0,2.0,1.0,513.5,medium,0,637606,218,main_task,7.0,14.0,4.0,9.0
8932.0,10.0,3.0,10.0,2.0,low,1,1.0,1.0,1.0,517.5,medium,0,639128,220,main_task,7.0,18.0,2.0,10.0
8932.0,11.0,3.0,11.0,2.0,low,2,2.0,2.0,1.0,527.8999999761581,medium,0,640660,222,main_task,7.0,14.0,5.0,11.0
8932.0,12.0,3.0,12.0,2.0,low,1,1.0,1.0,1.0,488.0,fast,0,642152,224,main_task,7.0,18.0,3.0,12.0
8932.0,13.0,3.0,13.0,2.0,low,1,1.0,1.0,1.0,604.6000000238419,medium,0,643761,226,main_task,7.0,18.0,4.0,13.0
8932.0,14.0,3.0,14.0,2.0,low,2,2.0,2.0,1.0,404.59999990463257,fast,0,645172,228,main_task,7.0,14.0,6.0,14.0
8932.0,15.0,3.0,15.0,2.0,low,1,1.0,1.0,1.0,411.5,fast,0,646587,230,main_task,7.0,18.0,5.0,15.0
8932.0,16.0,3.0,16.0,2.0,low,2,2.0,2.0,1.0,433.10000002384186,fast,0,648024,232,main_task,7.0,14.0,7.0,16.0
8932.0,17.0,3.0,17.0,2.0,low,2,2.0,2.0,1.0,640.7999999523163,medium,0,649668,234,main_task,7.0,14.0,8.0,17.0
8932.0,18.0,3.0,18.0,2.0,low,1,1.0,1.0,1.0,507.0,medium,0,651180,236,main_task,7.0,18.0,6.0,18.0
8932.0,19.0,3.0,19.0,2.0,low,1,1.0,1.0,1.0,707.5,medium,0,652892,238,main_task,7.0,18.0,7.0,19.0
8932.0,20.0,3.0,20.0,2.0,low,2,2.0,2.0,1.0,495.8999999761581,fast,0,654391,240,main_task,7.0,14.0,9.0,20.0
8932.0,21.0,3.0,21.0,2.0,low,2,2.0,2.0,1.0,662.7999999523163,medium,0,656059,242,main_task,7.0,14.0,10.0,21.0
8932.0,22.0,3.0,22.0,2.0,low,1,1.0,1.0,1.0,507.10000002384186,medium,0,657571,244,main_task,7.0,18.0,8.0,22.0
8932.0,23.0,3.0,23.0,2.0,low,2,2.0,2.0,1.0,655.2999999523163,medium,0,659230,246,main_task,7.0,14.0,11.0,23.0
8932.0,24.0,3.0,24.0,2.0,low,1,1.0,1.0,1.0,663.6999999284744,medium,0,660898,248,main_task,7.0,18.0,9.0,24.0
8932.0,25.0,3.0,25.0,2.0,low,1,1.0,1.0,1.0,496.4000000953674,fast,0,662398,250,main_task,7.0,18.0,10.0,25.0
8932.0,26.0,3.0,26.0,2.0,low,2,2.0,2.0,1.0,653.1000000238419,medium,0,664056,252,main_task,7.0,14.0,12.0,26.0
8932.0,27.0,3.0,27.0,2.0,low,1,1.0,1.0,1.0,557.1000000238419,medium,0,665618,254,main_task,7.0,18.0,11.0,27.0
8932.0,28.0,3.0,28.0,2.0,low,1,1.0,1.0,1.0,558.9000000953674,medium,0,667181,256,main_task,7.0,18.0,12.0,28.0
8932.0,29.0,3.0,29.0,2.0,low,2,2.0,2.0,1.0,562.7999999523163,medium,0,668748,258,main_task,7.0,14.0,13.0,29.0
8932.0,30.0,3.0,30.0,2.0,low,2,2.0,2.0,1.0,749.5,medium,0,670501,260,main_task,7.0,14.0,14.0,30.0
8932.0,31.0,5.0,1.0,2.0,low,1,0.0,1.0,0.0,880.8999999761581,medium,0,685847,264,main_task,16.0,13.0,0.0,1.0
8932.0,32.0,5.0,2.0,2.0,low,2,0.0,0.0,1.0,1164.8000000715256,slow,0,688017,266,main_task,16.0,12.0,1.0,2.0
8932.0,33.0,5.0,3.0,2.0,low,2,0.0,0.0,1.0,681.3999999761581,medium,0,689703,268,main_task,16.0,12.0,2.0,3.0
8932.0,34.0,5.0,4.0,2.0,low,1,1.0,1.0,1.0,538.5,medium,0,691246,270,main_task,16.0,13.0,1.0,4.0
8932.0,35.0,5.0,5.0,2.0,low,2,0.0,0.0,1.0,514.7000000476837,medium,0,692764,272,main_task,16.0,12.0,3.0,5.0
8932.0,36.0,5.0,6.0,2.0,low,1,1.0,1.0,1.0,459.6999999284744,fast,0,694228,274,main_task,16.0,13.0,2.0,6.0
8932.0,37.0,5.0,7.0,2.0,low,1,1.0,1.0,1.0,647.7999999523163,medium,0,695880,276,main_task,16.0,13.0,3.0,7.0
8932.0,38.0,5.0,8.0,2.0,low,2,0.0,0.0,1.0,581.5,medium,0,697466,278,main_task,16.0,12.0,4.0,8.0
8932.0,39.0,5.0,9.0,2.0,low,1,1.0,1.0,1.0,463.3999999761581,fast,0,698935,280,main_task,16.0,13.0,4.0,9.0
8932.0,40.0,5.0,10.0,2.0,low,1,1.0,1.0,1.0,518.6000000238419,medium,0,700458,282,main_task,16.0,13.0,5.0,10.0
8932.0,41.0,5.0,11.0,2.0,low,2,0.0,0.0,1.0,446.60000002384186,fast,0,701909,284,main_task,16.0,12.0,5.0,11.0
8932.0,42.0,5.0,12.0,2.0,low,2,0.0,0.0,1.0,580.2000000476837,medium,0,703494,286,main_task,16.0,12.0,6.0,12.0
8932.0,43.0,5.0,13.0,2.0,low,1,1.0,1.0,1.0,490.7000000476837,fast,0,704989,288,main_task,16.0,13.0,6.0,13.0
8932.0,44.0,5.0,14.0,2.0,low,2,0.0,0.0,1.0,541.6000000238419,medium,0,706535,290,main_task,16.0,12.0,7.0,14.0
8932.0,45.0,5.0,15.0,2.0,low,2,0.0,0.0,1.0,500.60000002384186,medium,0,708040,292,main_task,16.0,12.0,8.0,15.0
8932.0,46.0,5.0,16.0,2.0,low,1,1.0,1.0,1.0,530.1000000238419,medium,0,709574,294,main_task,16.0,13.0,7.0,16.0
8932.0,47.0,5.0,17.0,2.0,low,2,0.0,0.0,1.0,752.3000000715256,medium,0,711329,296,main_task,16.0,12.0,9.0,17.0
8932.0,48.0,5.0,18.0,2.0,low,1,1.0,1.0,1.0,434.6999999284744,fast,0,712768,298,main_task,16.0,13.0,8.0,18.0
8932.0,49.0,5.0,19.0,2.0,low,1,1.0,1.0,1.0,507.10000002384186,medium,0,714281,300,main_task,16.0,13.0,9.0,19.0
8932.0,50.0,5.0,20.0,2.0,low,2,0.0,0.0,1.0,545.3999999761581,medium,0,715830,302,main_task,16.0,12.0,10.0,20.0
8932.0,51.0,5.0,21.0,2.0,low,2,0.0,0.0,1.0,488.5,fast,0,717323,304,main_task,16.0,12.0,11.0,21.0
8932.0,52.0,5.0,22.0,2.0,low,1,1.0,1.0,1.0,554.4000000953674,medium,0,718882,306,main_task,16.0,13.0,10.0,22.0
8932.0,53.0,5.0,23.0,2.0,low,2,0.0,0.0,1.0,629.1999999284744,medium,0,720516,308,main_task,16.0,12.0,12.0,23.0
8932.0,54.0,5.0,24.0,2.0,low,1,1.0,1.0,1.0,461.3999999761581,fast,0,721980,310,main_task,16.0,13.0,11.0,24.0
8932.0,55.0,5.0,25.0,2.0,low,1,1.0,1.0,1.0,539.2000000476837,medium,0,723524,312,main_task,16.0,13.0,12.0,25.0
8932.0,56.0,5.0,26.0,2.0,low,2,0.0,1.0,0.0,545.0,medium,0,725073,314,main_task,16.0,inf,0.0,26.0
8932.0,57.0,5.0,27.0,2.0,low,1,1.0,1.0,1.0,806.9000000953674,medium,0,726884,316,main_task,16.0,13.0,13.0,27.0
8932.0,58.0,5.0,28.0,2.0,low,2,1.0,1.0,1.0,742.6000000238419,medium,0,728631,318,main_task,16.0,inf,1.0,28.0
8932.0,59.0,5.0,29.0,2.0,low,2,1.0,1.0,1.0,555.2999999523163,medium,0,730192,320,main_task,16.0,inf,2.0,29.0
8932.0,60.0,5.0,30.0,2.0,low,1,1.0,0.0,0.0,370.0,fast,0,731566,322,main_task,16.0,inf,0.0,30.0
8932.0,61.0,6.0,1.0,5.0,high,1,0.0,1.0,0.0,809.8999999761581,medium,0,749217,326,main_task,1.0,14.0,0.0,1.0
8932.0,62.0,6.0,2.0,5.0,high,2,0.0,0.0,1.0,816.7999999523163,medium,0,751039,328,main_task,1.0,17.0,1.0,2.0
8932.0,63.0,6.0,3.0,5.0,high,3,0.0,2.0,0.0,1215.6999999284744,slow,0,753258,330,main_task,1.0,12.0,0.0,3.0
8932.0,64.0,6.0,4.0,5.0,high,4,0.0,0.0,1.0,750.8000000715256,medium,0,755014,332,main_task,1.0,12.0,1.0,4.0
8932.0,65.0,6.0,5.0,5.0,high,5,0.0,0.0,1.0,687.8000000715256,medium,0,756707,334,main_task,1.0,18.0,1.0,5.0
8932.0,66.0,6.0,6.0,5.0,high,2,1.0,0.0,0.0,596.0,medium,0,758308,336,main_task,1.0,17.0,0.0,6.0
8932.0,67.0,6.0,7.0,5.0,high,4,0.0,0.0,1.0,1455.7999999523165,slow,0,760768,338,main_task,1.0,12.0,2.0,7.0
8932.0,68.0,6.0,8.0,5.0,high,1,1.0,1.0,1.0,1223.3000000715256,slow,0,762996,340,main_task,1.0,14.0,1.0,8.0
8932.0,69.0,6.0,9.0,5.0,high,3,1.0,2.0,0.0,1192.2000000476835,slow,0,765192,342,main_task,1.0,12.0,0.0,9.0
8932.0,70.0,6.0,10.0,5.0,high,5,2.0,0.0,0.0,809.6000000238419,medium,0,767007,344,main_task,1.0,18.0,0.0,10.0
8932.0,71.0,6.0,11.0,5.0,high,5,2.0,0.0,0.0,496.60000002384186,fast,0,768506,346,main_task,1.0,18.0,0.0,11.0
8932.0,72.0,6.0,12.0,5.0,high,2,0.0,0.0,1.0,270.39999997615814,fast,0,769781,348,main_task,1.0,17.0,1.0,12.0
8932.0,73.0,6.0,13.0,5.0,high,3,1.0,2.0,0.0,548.2000000476837,medium,0,771333,350,main_task,1.0,12.0,0.0,13.0
8932.0,74.0,6.0,14.0,5.0,high,4,2.0,0.0,0.0,545.6000000238419,medium,0,772884,352,main_task,1.0,12.0,0.0,14.0
8932.0,75.0,6.0,15.0,5.0,high,3,0.0,2.0,0.0,312.0,fast,0,774199,354,main_task,1.0,12.0,0.0,15.0
8932.0,76.0,6.0,16.0,5.0,high,1,1.0,1.0,1.0,227.59999990463257,fast,0,775432,356,main_task,1.0,14.0,2.0,16.0
8932.0,77.0,6.0,17.0,5.0,high,4,2.0,0.0,0.0,547.7000000476837,medium,0,776984,358,main_task,1.0,12.0,0.0,17.0
8932.0,78.0,6.0,18.0,5.0,high,1,0.0,1.0,0.0,264.60000002384186,fast,0,778252,360,main_task,1.0,14.0,0.0,18.0
8932.0,79.0,6.0,19.0,5.0,high,5,1.0,0.0,0.0,209.69999992847443,fast,0,779467,362,main_task,1.0,18.0,0.0,19.0
8932.0,80.0,6.0,20.0,5.0,high,5,2.0,0.0,0.0,94.90000009536745,fast,0,780568,364,main_task,1.0,18.0,0.0,20.0
8932.0,81.0,6.0,21.0,5.0,high,2,0.0,0.0,1.0,226.90000009536743,fast,0,781799,366,main_task,1.0,17.0,2.0,21.0
8932.0,82.0,6.0,22.0,5.0,high,4,1.0,0.0,0.0,69.20000004768372,fast,0,782872,368,main_task,1.0,12.0,0.0,22.0
8932.0,83.0,6.0,23.0,5.0,high,2,2.0,0.0,0.0,37.5,fast,0,783914,370,main_task,1.0,17.0,0.0,23.0
8932.0,84.0,6.0,24.0,5.0,high,3,0.0,2.0,0.0,86.20000004768372,fast,0,785006,372,main_task,1.0,12.0,0.0,24.0
8932.0,85.0,6.0,25.0,5.0,high,1,1.0,1.0,1.0,711.7000000476837,medium,0,786722,374,main_task,1.0,14.0,1.0,25.0
8932.0,86.0,6.0,26.0,5.0,high,2,2.0,0.0,0.0,157.20000004768372,fast,0,787883,376,main_task,1.0,17.0,0.0,26.0
8932.0,87.0,6.0,27.0,5.0,high,4,2.0,0.0,0.0,246.79999995231628,fast,0,789134,378,main_task,1.0,12.0,0.0,27.0
8932.0,88.0,6.0,28.0,5.0,high,3,1.0,2.0,0.0,558.2000000476837,medium,0,790696,380,main_task,1.0,12.0,0.0,28.0
8932.0,89.0,6.0,29.0,5.0,high,5,0.0,0.0,1.0,167.0,fast,0,791867,382,main_task,1.0,18.0,1.0,29.0
8932.0,90.0,6.0,30.0,5.0,high,1,1.0,1.0,1.0,289.39999997615814,fast,0,793162,384,main_task,1.0,14.0,2.0,30.0
8932.0,91.0,6.0,31.0,5.0,high,1,1.0,1.0,1.0,406.2000000476837,fast,0,794572,386,main_task,1.0,14.0,3.0,31.0
8932.0,92.0,6.0,32.0,5.0,high,2,0.0,0.0,1.0,582.1999999284744,medium,0,796158,388,main_task,1.0,17.0,1.0,32.0
8932.0,93.0,6.0,33.0,5.0,high,5,0.0,0.0,1.0,639.2000000476837,medium,0,797802,390,main_task,1.0,18.0,2.0,33.0
8932.0,94.0,6.0,34.0,5.0,high,4,0.0,0.0,1.0,601.6999999284744,medium,0,799409,392,main_task,1.0,12.0,1.0,34.0
8932.0,95.0,6.0,35.0,5.0,high,3,0.0,2.0,0.0,429.60000002384186,fast,0,800843,394,main_task,1.0,12.0,0.0,35.0
8932.0,96.0,6.0,36.0,5.0,high,3,1.0,2.0,0.0,555.8999999761581,medium,0,802403,396,main_task,1.0,12.0,0.0,36.0
8932.0,97.0,6.0,37.0,5.0,high,1,0.0,1.0,0.0,827.5,medium,0,804235,398,main_task,1.0,14.0,0.0,37.0
8932.0,98.0,6.0,38.0,5.0,high,2,2.0,0.0,0.0,363.10000002384186,fast,0,805602,400,main_task,1.0,17.0,0.0,38.0
8932.0,99.0,6.0,39.0,5.0,high,4,1.0,0.0,0.0,509.3000000715256,medium,0,807115,402,main_task,1.0,12.0,0.0,39.0
8932.0,100.0,6.0,40.0,5.0,high,1,0.0,1.0,0.0,295.40000009536743,fast,0,808416,404,main_task,1.0,14.0,0.0,40.0
8932.0,101.0,6.0,41.0,5.0,high,5,1.0,0.0,0.0,238.79999995231628,fast,0,809660,406,main_task,1.0,18.0,0.0,41.0
8932.0,102.0,6.0,42.0,5.0,high,4,2.0,0.0,0.0,226.60000002384183,fast,0,810891,408,main_task,1.0,12.0,0.0,42.0
8932.0,103.0,6.0,43.0,5.0,high,5,0.0,0.0,1.0,420.8000000715256,fast,0,812318,410,main_task,1.0,18.0,1.0,43.0
8932.0,104.0,6.0,44.0,5.0,high,3,1.0,2.0,0.0,300.60000002384186,fast,0,813623,412,main_task,1.0,12.0,0.0,44.0
8932.0,105.0,6.0,45.0,5.0,high,3,2.0,2.0,1.0,251.60000002384183,fast,0,814878,414,main_task,1.0,12.0,1.0,45.0
8932.0,106.0,6.0,46.0,5.0,high,2,0.0,0.0,1.0,470.2999999523163,fast,0,816353,416,main_task,1.0,17.0,1.0,46.0
8932.0,107.0,6.0,47.0,5.0,high,5,1.0,0.0,0.0,259.5,fast,0,817617,418,main_task,1.0,18.0,0.0,47.0
8932.0,108.0,6.0,48.0,5.0,high,2,2.0,0.0,0.0,66.5,fast,0,818689,420,main_task,1.0,17.0,0.0,48.0
8932.0,109.0,6.0,49.0,5.0,high,1,0.0,1.0,0.0,213.10000002384183,fast,0,819907,422,main_task,1.0,14.0,0.0,49.0
8932.0,110.0,6.0,50.0,5.0,high,4,1.0,0.0,0.0,28.10000002384185,fast,0,820941,424,main_task,1.0,12.0,0.0,50.0
8932.0,111.0,6.0,51.0,5.0,high,4,2.0,0.0,0.0,64.10000002384186,fast,0,822008,426,main_task,1.0,12.0,0.0,51.0
8932.0,112.0,6.0,52.0,5.0,high,2,0.0,0.0,1.0,247.19999992847443,fast,0,823261,428,main_task,1.0,17.0,1.0,52.0
8932.0,113.0,6.0,53.0,5.0,high,5,1.0,0.0,0.0,231.3000000715256,fast,0,824497,430,main_task,1.0,18.0,0.0,53.0
8932.0,114.0,6.0,54.0,5.0,high,3,2.0,2.0,1.0,469.5,fast,0,825971,432,main_task,1.0,12.0,2.0,54.0
8932.0,115.0,6.0,55.0,5.0,high,2,1.0,0.0,0.0,165.39999997615814,fast,0,827141,434,main_task,1.0,17.0,0.0,55.0
8932.0,116.0,6.0,56.0,5.0,high,1,0.0,1.0,0.0,247.69999992847443,fast,0,828394,436,main_task,1.0,14.0,0.0,56.0
8932.0,117.0,6.0,57.0,5.0,high,3,1.0,2.0,0.0,76.19999992847443,fast,0,829475,438,main_task,1.0,12.0,0.0,57.0
8932.0,118.0,6.0,58.0,5.0,high,1,2.0,1.0,0.0,88.20000004768372,fast,0,830568,440,main_task,1.0,14.0,0.0,58.0
8932.0,119.0,6.0,59.0,5.0,high,5,1.0,0.0,0.0,611.1999999284744,medium,0,832185,442,main_task,1.0,18.0,0.0,59.0
8932.0,120.0,6.0,60.0,5.0,high,4,0.0,0.0,1.0,245.0,fast,0,833434,444,main_task,1.0,12.0,1.0,60.0
8932.0,121.0,6.0,61.0,5.0,high,3,1.0,2.0,0.0,38.39999997615814,fast,0,834477,446,main_task,1.0,12.0,0.0,61.0
8932.0,122.0,6.0,62.0,5.0,high,4,2.0,0.0,0.0,11.0,fast,0,835492,448,main_task,1.0,12.0,0.0,62.0
8932.0,123.0,6.0,63.0,5.0,high,1,2.0,1.0,0.0,163.0,fast,0,836658,450,main_task,1.0,14.0,0.0,63.0
8932.0,124.0,6.0,64.0,5.0,high,2,1.0,0.0,0.0,409.60000002384186,fast,0,838072,452,main_task,1.0,17.0,0.0,64.0
8932.0,125.0,6.0,65.0,5.0,high,5,0.0,0.0,1.0,205.79999995231628,fast,0,839282,454,main_task,1.0,18.0,1.0,65.0
8932.0,126.0,6.0,66.0,5.0,high,5,0.0,0.0,1.0,159.10000002384186,fast,0,840446,456,main_task,1.0,18.0,2.0,66.0
8932.0,127.0,6.0,67.0,5.0,high,4,0.0,0.0,1.0,298.2999999523163,fast,0,841748,458,main_task,1.0,12.0,1.0,67.0
8932.0,128.0,6.0,68.0,5.0,high,3,0.0,2.0,0.0,257.0,fast,0,843010,460,main_task,1.0,12.0,0.0,68.0
8932.0,129.0,6.0,69.0,5.0,high,2,0.0,0.0,1.0,206.5,fast,0,844220,462,main_task,1.0,17.0,1.0,69.0
8932.0,130.0,6.0,70.0,5.0,high,1,0.0,1.0,0.0,172.20000004768372,fast,0,845397,464,main_task,1.0,14.0,0.0,70.0
8932.0,131.0,6.0,71.0,5.0,high,3,0.0,2.0,0.0,118.19999992847444,fast,0,846520,466,main_task,1.0,12.0,0.0,71.0
8932.0,132.0,6.0,72.0,5.0,high,1,0.0,1.0,0.0,301.10000002384186,fast,0,847826,468,main_task,1.0,14.0,0.0,72.0
8932.0,133.0,6.0,73.0,5.0,high,2,0.0,0.0,1.0,296.8000000715256,fast,0,849125,470,main_task,1.0,17.0,2.0,73.0
8932.0,134.0,6.0,74.0,5.0,high,5,0.0,0.0,1.0,312.8000000715256,fast,0,850442,472,main_task,1.0,18.0,3.0,74.0
8932.0,135.0,6.0,75.0,5.0,high,4,0.0,0.0,1.0,307.8000000715256,fast,0,851755,474,main_task,1.0,12.0,2.0,75.0
8932.0,136.0,7.0,1.0,6.0,high,1,0.0,0.0,1.0,692.8999999761581,medium,0,863270,478,main_task,17.0,16.0,1.0,1.0
8932.0,137.0,7.0,2.0,6.0,high,2,1.0,1.0,1.0,912.0,medium,0,865186,480,main_task,17.0,17.0,1.0,2.0
8932.0,138.0,7.0,3.0,6.0,high,3,2.0,0.0,0.0,465.2000000476837,fast,0,866656,482,main_task,17.0,18.0,0.0,3.0
8932.0,139.0,7.0,4.0,6.0,high,4,2.0,0.0,0.0,838.6000000238419,medium,0,868498,484,main_task,17.0,13.0,0.0,4.0
8932.0,140.0,7.0,5.0,6.0,high,5,2.0,0.0,0.0,703.6000000238419,medium,0,870207,486,main_task,17.0,16.0,0.0,5.0
8932.0,141.0,7.0,6.0,6.0,high,6,2.0,0.0,0.0,545.3000000715256,medium,0,871757,488,main_task,17.0,14.0,0.0,6.0
8932.0,142.0,7.0,7.0,6.0,high,3,2.0,0.0,0.0,640.6999999284744,medium,0,873402,490,main_task,17.0,18.0,0.0,7.0
8932.0,143.0,7.0,8.0,6.0,high,1,0.0,0.0,1.0,515.3999999761581,medium,0,874921,492,main_task,17.0,16.0,2.0,8.0
8932.0,144.0,7.0,9.0,6.0,high,6,1.0,0.0,0.0,977.2000000476836,medium,0,876904,494,main_task,17.0,14.0,0.0,9.0
8932.0,145.0,7.0,10.0,6.0,high,4,0.0,0.0,1.0,1175.600000023842,slow,0,879085,496,main_task,17.0,13.0,1.0,10.0
8932.0,146.0,7.0,11.0,6.0,high,2,0.0,1.0,0.0,692.6000000238419,medium,0,880782,498,main_task,17.0,17.0,0.0,11.0
8932.0,147.0,7.0,12.0,6.0,high,2,1.0,1.0,1.0,350.7999999523163,fast,0,882137,500,main_task,17.0,17.0,1.0,12.0
8932.0,148.0,7.0,13.0,6.0,high,5,2.0,0.0,0.0,868.2999999523163,medium,0,884010,502,main_task,17.0,16.0,0.0,13.0
8932.0,149.0,7.0,14.0,6.0,high,4,1.0,0.0,0.0,359.39999997615814,fast,0,885374,504,main_task,17.0,13.0,0.0,14.0
8932.0,150.0,7.0,15.0,6.0,high,5,0.0,0.0,1.0,304.39999997615814,fast,0,886683,506,main_task,17.0,16.0,1.0,15.0
8932.0,151.0,7.0,16.0,6.0,high,6,0.0,0.0,1.0,322.89999997615814,fast,0,888011,508,main_task,17.0,14.0,1.0,16.0
8932.0,152.0,7.0,17.0,6.0,high,3,1.0,0.0,0.0,489.6999999284744,fast,0,889504,510,main_task,17.0,18.0,0.0,17.0
8932.0,153.0,7.0,18.0,6.0,high,1,2.0,0.0,0.0,168.79999995231628,fast,0,890679,512,main_task,17.0,16.0,0.0,18.0
8932.0,154.0,7.0,19.0,6.0,high,4,2.0,0.0,0.0,52.699999928474426,fast,0,891736,514,main_task,17.0,13.0,0.0,19.0
8932.0,155.0,7.0,20.0,6.0,high,1,0.0,0.0,1.0,518.1000000238419,medium,0,893260,516,main_task,17.0,16.0,1.0,20.0
8932.0,156.0,7.0,21.0,6.0,high,6,0.0,0.0,1.0,302.0,fast,0,894566,518,main_task,17.0,14.0,2.0,21.0
8932.0,157.0,7.0,22.0,6.0,high,2,0.0,1.0,0.0,276.90000009536743,fast,0,895848,520,main_task,17.0,17.0,0.0,22.0
8932.0,158.0,7.0,23.0,6.0,high,5,1.0,0.0,0.0,214.5,fast,0,897066,522,main_task,17.0,16.0,0.0,23.0
8932.0,159.0,7.0,24.0,6.0,high,3,2.0,0.0,0.0,752.8999999761581,medium,0,898823,524,main_task,17.0,18.0,0.0,24.0
8932.0,160.0,7.0,25.0,6.0,high,3,1.0,0.0,0.0,308.3000000715256,fast,0,900136,526,main_task,17.0,18.0,0.0,25.0
8932.0,161.0,7.0,26.0,6.0,high,1,0.0,0.0,1.0,445.10000002384186,fast,0,901586,528,main_task,17.0,16.0,2.0,26.0
8932.0,162.0,7.0,27.0,6.0,high,4,1.0,0.0,0.0,118.30000007152556,fast,0,902709,530,main_task,17.0,13.0,0.0,27.0
8932.0,163.0,7.0,28.0,6.0,high,3,2.0,0.0,0.0,42.59999990463257,fast,0,903755,532,main_task,17.0,18.0,0.0,28.0
8932.0,164.0,7.0,29.0,6.0,high,5,1.0,0.0,0.0,284.0,fast,0,905044,534,main_task,17.0,16.0,0.0,29.0
8932.0,165.0,7.0,30.0,6.0,high,6,0.0,0.0,1.0,262.8000000715256,fast,0,906312,536,main_task,17.0,14.0,3.0,30.0
8932.0,166.0,7.0,31.0,6.0,high,2,0.0,1.0,0.0,280.7999999523163,fast,0,907597,538,main_task,17.0,17.0,0.0,31.0
8932.0,167.0,7.0,32.0,6.0,high,2,1.0,1.0,1.0,244.3999999761581,fast,0,908846,540,main_task,17.0,17.0,1.0,32.0
8932.0,168.0,7.0,33.0,6.0,high,6,2.0,0.0,0.0,215.8999999761581,fast,0,910066,542,main_task,17.0,14.0,0.0,33.0
8932.0,169.0,7.0,34.0,6.0,high,5,1.0,0.0,0.0,101.60000002384186,fast,0,911173,544,main_task,17.0,16.0,0.0,34.0
8932.0,170.0,7.0,35.0,6.0,high,6,1.0,0.0,0.0,417.09999990463257,fast,0,912593,546,main_task,17.0,14.0,0.0,35.0
8932.0,171.0,7.0,36.0,6.0,high,1,0.0,0.0,1.0,25.299999952316284,fast,0,913623,548,main_task,17.0,16.0,3.0,36.0
8932.0,172.0,7.0,37.0,6.0,high,3,0.0,0.0,1.0,323.2000000476837,fast,0,914951,550,main_task,17.0,18.0,1.0,37.0
8932.0,173.0,7.0,38.0,6.0,high,4,0.0,0.0,1.0,263.0,fast,0,916219,552,main_task,17.0,13.0,1.0,38.0
8932.0,174.0,7.0,39.0,6.0,high,6,0.0,0.0,1.0,591.2999999523163,medium,0,917815,554,main_task,17.0,14.0,1.0,39.0
8932.0,175.0,7.0,40.0,6.0,high,2,0.0,1.0,0.0,381.7999999523163,fast,0,919200,556,main_task,17.0,17.0,0.0,40.0
8932.0,176.0,7.0,41.0,6.0,high,1,0.0,0.0,1.0,556.1999999284744,medium,0,920760,558,main_task,17.0,16.0,4.0,41.0
8932.0,177.0,7.0,42.0,6.0,high,4,0.0,0.0,1.0,1551.5,slow,0,923317,560,main_task,17.0,13.0,2.0,42.0
8932.0,178.0,7.0,43.0,6.0,high,1,0.0,0.0,1.0,522.3999999761581,medium,0,924844,562,main_task,17.0,16.0,5.0,43.0
8932.0,179.0,7.0,44.0,6.0,high,5,0.0,0.0,1.0,786.5,medium,0,926636,564,main_task,17.0,16.0,1.0,44.0
8932.0,180.0,7.0,45.0,6.0,high,4,0.0,0.0,1.0,748.6000000238419,medium,0,928389,566,main_task,17.0,13.0,3.0,45.0
8932.0,181.0,7.0,46.0,6.0,high,2,0.0,1.0,0.0,533.7999999523163,medium,0,929926,568,main_task,17.0,17.0,0.0,46.0
8932.0,182.0,7.0,47.0,6.0,high,5,0.0,0.0,1.0,530.6000000238419,medium,0,931460,570,main_task,17.0,16.0,2.0,47.0
8932.0,183.0,7.0,48.0,6.0,high,3,0.0,0.0,1.0,506.09999990463257,medium,0,932971,572,main_task,17.0,18.0,2.0,48.0
8932.0,184.0,7.0,49.0,6.0,high,3,0.0,0.0,1.0,576.6999999284744,medium,0,934552,574,main_task,17.0,18.0,3.0,49.0
8932.0,185.0,7.0,50.0,6.0,high,6,0.0,0.0,1.0,604.7999999523163,medium,0,936161,576,main_task,17.0,14.0,2.0,50.0
8932.0,186.0,7.0,51.0,6.0,high,5,0.0,0.0,1.0,574.2999999523163,medium,0,937740,578,main_task,17.0,16.0,3.0,51.0
8932.0,187.0,7.0,52.0,6.0,high,4,0.0,0.0,1.0,526.8999999761581,medium,0,939271,580,main_task,17.0,13.0,4.0,52.0
8932.0,188.0,7.0,53.0,6.0,high,2,0.0,1.0,0.0,522.2999999523163,medium,0,940798,582,main_task,17.0,17.0,0.0,53.0
8932.0,189.0,7.0,54.0,6.0,high,1,0.0,0.0,1.0,503.09999990463257,medium,0,942305,584,main_task,17.0,16.0,6.0,54.0
8932.0,190.0,7.0,55.0,6.0,high,6,0.0,0.0,1.0,475.7000000476837,fast,0,943786,586,main_task,17.0,14.0,3.0,55.0
8932.0,191.0,7.0,56.0,6.0,high,1,0.0,0.0,1.0,499.9000000953674,fast,0,945290,588,main_task,17.0,16.0,7.0,56.0
8932.0,192.0,7.0,57.0,6.0,high,5,0.0,0.0,1.0,812.2000000476837,medium,0,947106,590,main_task,17.0,16.0,4.0,57.0
8932.0,193.0,7.0,58.0,6.0,high,3,0.0,0.0,1.0,498.7999999523163,fast,0,948610,592,main_task,17.0,18.0,4.0,58.0
8932.0,194.0,7.0,59.0,6.0,high,4,0.0,0.0,1.0,653.0,medium,0,950268,594,main_task,17.0,13.0,5.0,59.0
8932.0,195.0,7.0,60.0,6.0,high,4,0.0,0.0,1.0,739.8999999761581,medium,0,952013,596,main_task,17.0,13.0,6.0,60.0
8932.0,196.0,7.0,61.0,6.0,high,2,1.0,1.0,1.0,878.6000000238419,medium,0,953897,598,main_task,17.0,17.0,1.0,61.0
8932.0,197.0,7.0,62.0,6.0,high,3,0.0,0.0,1.0,690.1999999284744,medium,0,955592,600,main_task,17.0,18.0,5.0,62.0
8932.0,198.0,7.0,63.0,6.0,high,6,0.0,0.0,1.0,439.10000002384186,fast,0,957036,602,main_task,17.0,14.0,4.0,63.0
8932.0,199.0,7.0,64.0,6.0,high,2,1.0,1.0,1.0,672.6999999284744,medium,0,958712,604,main_task,17.0,17.0,2.0,64.0
8932.0,200.0,7.0,65.0,6.0,high,1,0.0,0.0,1.0,572.9000000953674,medium,0,960290,606,main_task,17.0,16.0,8.0,65.0
8932.0,201.0,7.0,66.0,6.0,high,4,0.0,0.0,1.0,807.3000000715256,medium,0,962102,608,main_task,17.0,13.0,7.0,66.0
8932.0,202.0,7.0,67.0,6.0,high,5,0.0,0.0,1.0,696.6000000238419,medium,0,963803,610,main_task,17.0,16.0,5.0,67.0
8932.0,203.0,7.0,68.0,6.0,high,5,0.0,0.0,1.0,780.0,medium,0,965588,612,main_task,17.0,16.0,6.0,68.0
8932.0,204.0,7.0,69.0,6.0,high,2,1.0,1.0,1.0,462.1999999284744,fast,0,967055,614,main_task,17.0,17.0,3.0,69.0
8932.0,205.0,7.0,70.0,6.0,high,5,0.0,0.0,1.0,1035.0,slow,0,969095,616,main_task,17.0,16.0,7.0,70.0
8932.0,206.0,7.0,71.0,6.0,high,6,0.0,0.0,1.0,530.6000000238419,medium,0,970629,618,main_task,17.0,14.0,5.0,71.0
8932.0,207.0,7.0,72.0,6.0,high,1,0.0,0.0,1.0,500.5,medium,0,972133,620,main_task,17.0,16.0,9.0,72.0
8932.0,208.0,7.0,73.0,6.0,high,3,0.0,0.0,1.0,570.5,medium,0,973708,622,main_task,17.0,18.0,6.0,73.0
8932.0,209.0,7.0,74.0,6.0,high,6,0.0,0.0,1.0,522.3000000715256,medium,0,975236,624,main_task,17.0,14.0,6.0,74.0
8932.0,210.0,7.0,75.0,6.0,high,3,0.0,0.0,1.0,477.1999999284744,fast,0,976717,626,main_task,17.0,18.0,7.0,75.0
8932.0,211.0,7.0,76.0,6.0,high,1,0.0,0.0,1.0,489.60000002384186,fast,0,978210,628,main_task,17.0,16.0,10.0,76.0
8932.0,212.0,7.0,77.0,6.0,high,4,0.0,0.0,1.0,481.4000000953674,fast,0,979697,630,main_task,17.0,13.0,8.0,77.0
8932.0,213.0,7.0,78.0,6.0,high,2,1.0,1.0,1.0,552.1999999284744,medium,0,981253,632,main_task,17.0,17.0,4.0,78.0
8932.0,214.0,7.0,79.0,6.0,high,2,1.0,1.0,1.0,564.0,medium,0,982822,634,main_task,17.0,17.0,5.0,79.0
8932.0,215.0,7.0,80.0,6.0,high,6,0.0,0.0,1.0,538.2000000476837,medium,0,984365,636,main_task,17.0,14.0,7.0,80.0
8932.0,216.0,7.0,81.0,6.0,high,5,0.0,0.0,1.0,458.60000002384186,fast,0,985828,638,main_task,17.0,16.0,8.0,81.0
8932.0,217.0,7.0,82.0,6.0,high,4,0.0,0.0,1.0,509.5,medium,0,987342,640,main_task,17.0,13.0,9.0,82.0
8932.0,218.0,7.0,83.0,6.0,high,1,0.0,0.0,1.0,453.7999999523163,fast,0,988801,642,main_task,17.0,16.0,11.0,83.0
8932.0,219.0,7.0,84.0,6.0,high,3,0.0,0.0,1.0,568.3000000715256,medium,0,990374,644,main_task,17.0,18.0,8.0,84.0
8932.0,220.0,7.0,85.0,6.0,high,4,0.0,0.0,1.0,523.0,medium,0,991901,646,main_task,17.0,13.0,10.0,85.0
8932.0,221.0,7.0,86.0,6.0,high,5,0.0,0.0,1.0,449.8999999761581,fast,0,993355,648,main_task,17.0,16.0,9.0,86.0
8932.0,222.0,7.0,87.0,6.0,high,1,0.0,0.0,1.0,398.7000000476837,fast,0,994759,650,main_task,17.0,16.0,12.0,87.0
8932.0,223.0,7.0,88.0,6.0,high,6,0.0,0.0,1.0,437.3000000715256,fast,0,996200,652,main_task,17.0,14.0,8.0,88.0
8932.0,224.0,7.0,89.0,6.0,high,2,0.0,1.0,0.0,460.2000000476837,fast,0,997666,654,main_task,17.0,17.0,0.0,89.0
8932.0,225.0,7.0,90.0,6.0,high,3,0.0,0.0,1.0,598.8000000715256,medium,0,999271,656,main_task,17.0,18.0,9.0,90.0
8932.0,226.0,8.0,1.0,3.0,low,1,0.0,1.0,0.0,1112.3000000715256,slow,0,1011065,660,main_task,12.0,14.0,0.0,1.0
8932.0,227.0,8.0,2.0,3.0,low,2,0.0,1.0,0.0,921.8000000715256,medium,0,1012993,662,main_task,12.0,18.0,0.0,2.0
8932.0,228.0,8.0,3.0,3.0,low,3,0.0,2.0,0.0,465.0,fast,0,1014461,664,main_task,12.0,14.0,0.0,3.0
8932.0,229.0,8.0,4.0,3.0,low,2,1.0,1.0,1.0,882.5,medium,0,1016348,666,main_task,12.0,18.0,1.0,4.0
8932.0,230.0,8.0,5.0,3.0,low,1,1.0,1.0,1.0,634.3999999761581,medium,0,1017987,668,main_task,12.0,14.0,1.0,5.0
8932.0,231.0,8.0,6.0,3.0,low,3,1.0,2.0,0.0,703.6000000238419,medium,0,1019696,670,main_task,12.0,14.0,0.0,6.0
8932.0,232.0,8.0,7.0,3.0,low,3,2.0,2.0,1.0,760.8999999761581,medium,0,1021461,672,main_task,12.0,14.0,1.0,7.0
8932.0,233.0,8.0,8.0,3.0,low,1,1.0,1.0,1.0,486.60000002384186,fast,0,1022952,674,main_task,12.0,14.0,2.0,8.0
8932.0,234.0,8.0,9.0,3.0,low,2,1.0,1.0,1.0,367.8999999761581,fast,0,1024324,676,main_task,12.0,18.0,2.0,9.0
8932.0,235.0,8.0,10.0,3.0,low,1,1.0,1.0,1.0,451.3000000715256,fast,0,1025779,678,main_task,12.0,14.0,3.0,10.0
8932.0,236.0,8.0,11.0,3.0,low,3,2.0,2.0,1.0,417.09999990463257,fast,0,1027200,680,main_task,12.0,14.0,2.0,11.0
8932.0,237.0,8.0,12.0,3.0,low,2,1.0,1.0,1.0,387.3000000715256,fast,0,1028593,682,main_task,12.0,18.0,3.0,12.0
8932.0,238.0,8.0,13.0,3.0,low,2,1.0,1.0,1.0,551.1999999284744,medium,0,1030149,684,main_task,12.0,18.0,4.0,13.0
8932.0,239.0,8.0,14.0,3.0,low,1,1.0,1.0,1.0,505.4000000953674,medium,0,1031658,686,main_task,12.0,14.0,4.0,14.0
8932.0,240.0,8.0,15.0,3.0,low,3,2.0,2.0,1.0,510.2000000476837,medium,0,1033174,688,main_task,12.0,14.0,3.0,15.0
8932.0,241.0,8.0,16.0,3.0,low,3,2.0,2.0,1.0,668.3999999761581,medium,0,1034846,690,main_task,12.0,14.0,4.0,16.0
8932.0,242.0,8.0,17.0,3.0,low,1,1.0,1.0,1.0,474.9000000953674,fast,0,1036325,692,main_task,12.0,14.0,5.0,17.0
8932.0,243.0,8.0,18.0,3.0,low,2,1.0,1.0,1.0,317.60000002384186,fast,0,1037648,694,main_task,12.0,18.0,5.0,18.0
8932.0,244.0,8.0,19.0,3.0,low,1,1.0,1.0,1.0,348.6999999284744,fast,0,1039002,696,main_task,12.0,14.0,6.0,19.0
8932.0,245.0,8.0,20.0,3.0,low,2,1.0,1.0,1.0,379.4000000953674,fast,0,1040386,698,main_task,12.0,18.0,6.0,20.0
8932.0,246.0,8.0,21.0,3.0,low,3,1.0,2.0,0.0,432.5,fast,0,1041824,700,main_task,12.0,14.0,0.0,21.0
8932.0,247.0,8.0,22.0,3.0,low,3,2.0,2.0,1.0,457.7999999523163,fast,0,1043285,702,main_task,12.0,14.0,1.0,22.0
8932.0,248.0,8.0,23.0,3.0,low,1,1.0,1.0,1.0,476.9000000953674,fast,0,1044768,704,main_task,12.0,14.0,7.0,23.0
8932.0,249.0,8.0,24.0,3.0,low,3,2.0,2.0,1.0,597.3999999761581,medium,0,1046371,706,main_task,12.0,14.0,2.0,24.0
8932.0,250.0,8.0,25.0,3.0,low,2,1.0,1.0,1.0,441.0,fast,0,1047818,708,main_task,12.0,18.0,7.0,25.0
8932.0,251.0,8.0,26.0,3.0,low,2,1.0,1.0,1.0,453.4000000953674,fast,0,1049276,710,main_task,12.0,18.0,8.0,26.0
8932.0,252.0,8.0,27.0,3.0,low,3,2.0,2.0,1.0,726.3999999761581,medium,0,1051007,712,main_task,12.0,14.0,3.0,27.0
8932.0,253.0,8.0,28.0,3.0,low,1,1.0,1.0,1.0,552.2000000476837,medium,0,1052565,714,main_task,12.0,14.0,8.0,28.0
8932.0,254.0,8.0,29.0,3.0,low,2,1.0,1.0,1.0,465.7999999523163,fast,0,1054034,716,main_task,12.0,18.0,9.0,29.0
8932.0,255.0,8.0,30.0,3.0,low,1,1.0,1.0,1.0,546.7999999523163,medium,0,1055586,718,main_task,12.0,14.0,9.0,30.0
8932.0,256.0,8.0,31.0,3.0,low,1,1.0,1.0,1.0,462.10000002384186,fast,0,1057052,720,main_task,12.0,14.0,10.0,31.0
8932.0,257.0,8.0,32.0,3.0,low,3,2.0,2.0,1.0,744.8000000715256,medium,0,1058801,722,main_task,12.0,14.0,4.0,32.0
8932.0,258.0,8.0,33.0,3.0,low,2,1.0,1.0,1.0,413.3999999761581,fast,0,1060219,724,main_task,12.0,18.0,10.0,33.0
8932.0,259.0,8.0,34.0,3.0,low,1,1.0,1.0,1.0,427.60000002384186,fast,0,1061651,726,main_task,12.0,14.0,11.0,34.0
8932.0,260.0,8.0,35.0,3.0,low,2,1.0,1.0,1.0,391.2000000476837,fast,0,1063047,728,main_task,12.0,18.0,11.0,35.0
8932.0,261.0,8.0,36.0,3.0,low,3,2.0,2.0,1.0,794.7000000476837,medium,0,1064847,730,main_task,12.0,14.0,5.0,36.0
8932.0,262.0,8.0,37.0,3.0,low,3,2.0,2.0,1.0,527.1000000238419,medium,0,1066378,732,main_task,12.0,14.0,6.0,37.0
8932.0,263.0,8.0,38.0,3.0,low,2,1.0,1.0,1.0,605.1000000238419,medium,0,1067988,734,main_task,12.0,18.0,12.0,38.0
8932.0,264.0,8.0,39.0,3.0,low,1,1.0,1.0,1.0,486.10000002384186,fast,0,1069479,736,main_task,12.0,14.0,12.0,39.0
8932.0,265.0,8.0,40.0,3.0,low,1,1.0,1.0,1.0,568.0,medium,0,1071052,738,main_task,12.0,14.0,13.0,40.0
8932.0,266.0,8.0,41.0,3.0,low,3,2.0,2.0,1.0,731.2000000476837,medium,0,1072788,740,main_task,12.0,14.0,7.0,41.0
8932.0,267.0,8.0,42.0,3.0,low,1,2.0,1.0,0.0,452.0,fast,0,1074245,742,main_task,12.0,14.0,0.0,42.0
8932.0,268.0,8.0,43.0,3.0,low,2,1.0,1.0,1.0,555.0,medium,0,1075804,744,main_task,12.0,18.0,13.0,43.0
8932.0,269.0,8.0,44.0,3.0,low,3,2.0,2.0,1.0,714.6999999284744,medium,0,1077525,746,main_task,12.0,14.0,8.0,44.0
8932.0,270.0,8.0,45.0,3.0,low,2,1.0,1.0,1.0,635.8999999761581,medium,0,1079166,748,main_task,12.0,18.0,14.0,45.0
8932.0,271.0,9.0,1.0,6.0,high,1,0.0,1.0,0.0,946.600000023842,medium,0,1085439,752,main_task,21.0,16.0,0.0,1.0
8932.0,272.0,9.0,2.0,6.0,high,2,0.0,2.0,0.0,587.9000000953674,medium,0,1087031,754,main_task,21.0,15.0,0.0,2.0
8932.0,273.0,9.0,3.0,6.0,high,3,0.0,0.0,1.0,555.3999999761581,medium,0,1088590,756,main_task,21.0,13.0,1.0,3.0
8932.0,274.0,9.0,4.0,6.0,high,4,0.0,2.0,0.0,554.8999999761581,medium,0,1090150,758,main_task,21.0,15.0,0.0,4.0
8932.0,275.0,9.0,5.0,6.0,high,5,0.0,1.0,0.0,544.8999999761581,medium,0,1091698,760,main_task,21.0,12.0,0.0,5.0
8932.0,276.0,9.0,6.0,6.0,high,6,0.0,0.0,1.0,623.7999999523163,medium,0,1093326,762,main_task,21.0,15.0,1.0,6.0
8932.0,277.0,9.0,7.0,6.0,high,2,0.0,2.0,0.0,662.0,medium,0,1094994,764,main_task,21.0,15.0,0.0,7.0
8932.0,278.0,9.0,8.0,6.0,high,4,1.0,2.0,0.0,980.8000000715256,medium,0,1096980,766,main_task,21.0,15.0,0.0,8.0
8932.0,279.0,9.0,9.0,6.0,high,6,1.0,0.0,0.0,804.5,medium,0,1098790,768,main_task,21.0,15.0,0.0,9.0
8932.0,280.0,9.0,10.0,6.0,high,3,0.0,0.0,1.0,914.4000000953674,medium,0,1100710,770,main_task,21.0,13.0,2.0,10.0
8932.0,281.0,9.0,11.0,6.0,high,1,1.0,1.0,1.0,1111.2000000476835,slow,0,1102827,772,main_task,21.0,16.0,1.0,11.0
8932.0,282.0,9.0,12.0,6.0,high,5,2.0,1.0,0.0,945.100000023842,medium,0,1104777,774,main_task,21.0,12.0,0.0,12.0
8932.0,283.0,9.0,13.0,6.0,high,1,0.0,1.0,0.0,624.5,medium,0,1106405,776,main_task,21.0,16.0,0.0,13.0
8932.0,284.0,9.0,14.0,6.0,high,4,0.0,2.0,0.0,495.0,fast,0,1107903,778,main_task,21.0,15.0,0.0,14.0
8932.0,285.0,9.0,15.0,6.0,high,2,1.0,2.0,0.0,397.0,fast,0,1109303,780,main_task,21.0,15.0,0.0,15.0
8932.0,286.0,9.0,16.0,6.0,high,2,0.0,2.0,0.0,241.7000000476837,fast,0,1110549,782,main_task,21.0,15.0,0.0,16.0
8932.0,287.0,9.0,17.0,6.0,high,6,2.0,0.0,0.0,270.89999997615814,fast,0,1111825,784,main_task,21.0,15.0,0.0,17.0
8932.0,288.0,9.0,18.0,6.0,high,5,1.0,1.0,1.0,198.0,fast,0,1113027,786,main_task,21.0,12.0,1.0,18.0
8932.0,289.0,9.0,19.0,6.0,high,3,0.0,0.0,1.0,121.29999995231628,fast,0,1114152,788,main_task,21.0,13.0,3.0,19.0
8932.0,290.0,9.0,20.0,6.0,high,3,1.0,0.0,0.0,76.60000002384186,fast,0,1115233,790,main_task,21.0,13.0,0.0,20.0
8932.0,291.0,9.0,21.0,6.0,high,5,2.0,1.0,0.0,606.6000000238419,medium,0,1116844,792,main_task,21.0,12.0,0.0,21.0
8932.0,292.0,9.0,22.0,6.0,high,1,0.0,1.0,0.0,337.7999999523163,fast,0,1118186,794,main_task,21.0,16.0,0.0,22.0
8932.0,293.0,9.0,23.0,6.0,high,4,0.0,2.0,0.0,19.800000071525574,fast,0,1119210,796,main_task,21.0,15.0,0.0,23.0
8932.0,294.0,9.0,24.0,6.0,high,6,0.0,0.0,1.0,349.7000000476837,fast,0,1120565,798,main_task,21.0,15.0,1.0,24.0
8932.0,295.0,9.0,25.0,6.0,high,5,0.0,1.0,0.0,371.60000002384186,fast,0,1121940,800,main_task,21.0,12.0,0.0,25.0
8932.0,296.0,9.0,26.0,6.0,high,2,0.0,2.0,0.0,58.0,fast,0,1123002,802,main_task,21.0,15.0,0.0,26.0
8932.0,297.0,9.0,27.0,6.0,high,1,0.0,1.0,0.0,275.0,fast,0,1124282,804,main_task,21.0,16.0,0.0,27.0
8932.0,298.0,9.0,28.0,6.0,high,6,0.0,0.0,1.0,246.0,fast,0,1125532,806,main_task,21.0,15.0,2.0,28.0
8932.0,299.0,9.0,29.0,6.0,high,4,0.0,2.0,0.0,26.799999952316284,fast,0,1126563,808,main_task,21.0,15.0,0.0,29.0
8932.0,300.0,9.0,30.0,6.0,high,3,0.0,0.0,1.0,30.399999976158146,fast,0,1127599,810,main_task,21.0,13.0,1.0,30.0
8932.0,301.0,9.0,31.0,6.0,high,4,0.0,2.0,0.0,364.1999999284744,fast,0,1128968,812,main_task,21.0,15.0,0.0,31.0
8932.0,302.0,9.0,32.0,6.0,high,3,0.0,0.0,1.0,191.59999990463257,fast,0,1130164,814,main_task,21.0,13.0,2.0,32.0
8932.0,303.0,9.0,33.0,6.0,high,6,0.0,0.0,1.0,177.39999997615814,fast,0,1131347,816,main_task,21.0,15.0,3.0,33.0
8932.0,304.0,9.0,34.0,6.0,high,2,0.0,2.0,0.0,100.70000004768372,fast,0,1132450,818,main_task,21.0,15.0,0.0,34.0
8932.0,305.0,9.0,35.0,6.0,high,5,0.0,1.0,0.0,54.699999928474426,fast,0,1133509,820,main_task,21.0,12.0,0.0,35.0
8932.0,306.0,9.0,36.0,6.0,high,6,0.0,0.0,1.0,3.0,fast,0,1134515,822,main_task,21.0,15.0,4.0,36.0
8932.0,307.0,9.0,37.0,6.0,high,2,0.0,2.0,0.0,80.19999992847443,fast,0,1135599,824,main_task,21.0,15.0,0.0,37.0
8932.0,308.0,9.0,38.0,6.0,high,1,0.0,1.0,0.0,195.2000000476837,fast,0,1136800,826,main_task,21.0,16.0,0.0,38.0
8932.0,309.0,9.0,39.0,6.0,high,1,0.0,1.0,0.0,382.10000002384186,fast,0,1138186,828,main_task,21.0,16.0,0.0,39.0
8932.0,310.0,9.0,40.0,6.0,high,4,0.0,2.0,0.0,331.0,fast,0,1139522,830,main_task,21.0,15.0,0.0,40.0
8932.0,311.0,9.0,41.0,6.0,high,5,0.0,1.0,0.0,320.2999999523163,fast,0,1140848,832,main_task,21.0,12.0,0.0,41.0
8932.0,312.0,9.0,42.0,6.0,high,5,0.0,1.0,0.0,174.90000009536743,fast,0,1142027,834,main_task,21.0,12.0,0.0,42.0
8932.0,313.0,9.0,43.0,6.0,high,3,0.0,0.0,1.0,154.39999997615814,fast,0,1143186,836,main_task,21.0,13.0,3.0,43.0
8932.0,314.0,9.0,44.0,6.0,high,1,0.0,1.0,0.0,136.5,fast,0,1144328,838,main_task,21.0,16.0,0.0,44.0
8932.0,315.0,9.0,45.0,6.0,high,2,0.0,2.0,0.0,87.19999992847443,fast,0,1145420,840,main_task,21.0,15.0,0.0,45.0
8932.0,316.0,9.0,46.0,6.0,high,3,0.0,0.0,1.0,98.29999995231628,fast,0,1146525,842,main_task,21.0,13.0,4.0,46.0
8932.0,317.0,9.0,47.0,6.0,high,6,0.0,0.0,1.0,71.5,fast,0,1147601,844,main_task,21.0,15.0,5.0,47.0
8932.0,318.0,9.0,48.0,6.0,high,4,0.0,2.0,0.0,74.10000002384186,fast,0,1148679,846,main_task,21.0,15.0,0.0,48.0
8932.0,319.0,9.0,49.0,6.0,high,2,0.0,2.0,0.0,63.79999995231629,fast,0,1149748,848,main_task,21.0,15.0,0.0,49.0
8932.0,320.0,9.0,50.0,6.0,high,4,0.0,2.0,0.0,39.90000009536743,fast,0,1150792,850,main_task,21.0,15.0,0.0,50.0
8932.0,321.0,9.0,51.0,6.0,high,1,0.0,1.0,0.0,315.8000000715256,fast,0,1152113,852,main_task,21.0,16.0,0.0,51.0
8932.0,322.0,9.0,52.0,6.0,high,5,0.0,1.0,0.0,119.90000009536745,fast,0,1153237,854,main_task,21.0,12.0,0.0,52.0
8932.0,323.0,9.0,53.0,6.0,high,3,0.0,0.0,1.0,76.20000004768372,fast,0,1154319,856,main_task,21.0,13.0,5.0,53.0
8932.0,324.0,9.0,54.0,6.0,high,4,0.0,2.0,0.0,52.80000007152557,fast,0,1155377,858,main_task,21.0,15.0,0.0,54.0
8932.0,325.0,9.0,55.0,6.0,high,2,0.0,2.0,0.0,313.5,fast,0,1156697,860,main_task,21.0,15.0,0.0,55.0
8932.0,326.0,9.0,56.0,6.0,high,6,0.0,0.0,1.0,38.70000004768372,fast,0,1157741,862,main_task,21.0,15.0,6.0,56.0
8932.0,327.0,9.0,57.0,6.0,high,5,0.0,1.0,0.0,8.800000071525574,fast,0,1158753,864,main_task,21.0,12.0,0.0,57.0
8932.0,328.0,9.0,58.0,6.0,high,6,0.0,0.0,1.0,7.100000023841858,fast,0,1159765,866,main_task,21.0,15.0,7.0,58.0
8932.0,329.0,9.0,59.0,6.0,high,3,0.0,0.0,1.0,83.5,fast,0,1160853,868,main_task,21.0,13.0,6.0,59.0
8932.0,330.0,9.0,60.0,6.0,high,1,0.0,1.0,0.0,33.699999928474426,fast,0,1161891,870,main_task,21.0,16.0,0.0,60.0
8932.0,331.0,9.0,61.0,6.0,high,1,0.0,1.0,0.0,240.5,fast,0,1163137,872,main_task,21.0,16.0,0.0,61.0
8932.0,332.0,9.0,62.0,6.0,high,4,0.0,2.0,0.0,99.10000002384186,fast,0,1164241,874,main_task,21.0,15.0,0.0,62.0
8932.0,333.0,9.0,63.0,6.0,high,3,0.0,0.0,1.0,104.79999995231628,fast,0,1165351,876,main_task,21.0,13.0,7.0,63.0
8932.0,334.0,9.0,64.0,6.0,high,5,0.0,1.0,0.0,137.80000007152557,fast,0,1166494,878,main_task,21.0,12.0,0.0,64.0
8932.0,335.0,9.0,65.0,6.0,high,2,0.0,2.0,0.0,47.5,fast,0,1167547,880,main_task,21.0,15.0,0.0,65.0
8932.0,336.0,9.0,66.0,6.0,high,1,0.0,1.0,0.0,293.39999997615814,fast,0,1168844,882,main_task,21.0,16.0,0.0,66.0
8932.0,337.0,9.0,67.0,6.0,high,6,0.0,0.0,1.0,48.29999995231629,fast,0,1169896,884,main_task,21.0,15.0,8.0,67.0
8932.0,338.0,9.0,68.0,6.0,high,6,0.0,0.0,1.0,81.60000002384186,fast,0,1170984,886,main_task,21.0,15.0,9.0,68.0
8932.0,339.0,9.0,69.0,6.0,high,4,0.0,2.0,0.0,49.199999928474426,fast,0,1172037,888,main_task,21.0,15.0,0.0,69.0
8932.0,340.0,9.0,70.0,6.0,high,5,0.0,1.0,0.0,27.70000004768372,fast,0,1173070,890,main_task,21.0,12.0,0.0,70.0
8932.0,341.0,9.0,71.0,6.0,high,4,0.0,2.0,0.0,55.30000007152557,fast,0,1174130,892,main_task,21.0,15.0,0.0,71.0
8932.0,342.0,9.0,72.0,6.0,high,5,0.0,1.0,0.0,26.299999952316284,fast,0,1175162,894,main_task,21.0,12.0,0.0,72.0
8932.0,343.0,9.0,73.0,6.0,high,2,0.0,2.0,0.0,21.60000002384185,fast,0,1176189,896,main_task,21.0,15.0,0.0,73.0
8932.0,344.0,9.0,74.0,6.0,high,3,0.0,0.0,1.0,88.30000007152557,fast,0,1177281,898,main_task,21.0,13.0,8.0,74.0
8932.0,345.0,9.0,75.0,6.0,high,3,0.0,0.0,1.0,44.5,fast,0,1178330,900,main_task,21.0,13.0,9.0,75.0
8932.0,346.0,9.0,76.0,6.0,high,2,0.0,2.0,0.0,37.29999995231629,fast,0,1179371,902,main_task,21.0,15.0,0.0,76.0
8932.0,347.0,9.0,77.0,6.0,high,1,0.0,1.0,0.0,41.30000007152557,fast,0,1180419,904,main_task,21.0,16.0,0.0,77.0
8932.0,348.0,9.0,78.0,6.0,high,6,0.0,0.0,1.0,11.900000095367432,fast,0,1181435,906,main_task,21.0,15.0,10.0,78.0
8932.0,349.0,9.0,79.0,6.0,high,2,0.0,2.0,0.0,45.59999990463257,fast,0,1182487,908,main_task,21.0,15.0,0.0,79.0
8932.0,350.0,9.0,80.0,6.0,high,3,0.0,0.0,1.0,19.399999976158146,fast,0,1183510,910,main_task,21.0,13.0,10.0,80.0
8932.0,351.0,9.0,81.0,6.0,high,1,0.0,1.0,0.0,24.0,fast,0,1184539,912,main_task,21.0,16.0,0.0,81.0
8932.0,352.0,9.0,82.0,6.0,high,4,0.0,2.0,0.0,337.5,fast,0,1185881,914,main_task,21.0,15.0,0.0,82.0
8932.0,353.0,9.0,83.0,6.0,high,5,0.0,1.0,0.0,330.40000009536743,fast,0,1187217,916,main_task,21.0,12.0,0.0,83.0
8932.0,354.0,9.0,84.0,6.0,high,6,0.0,0.0,1.0,308.89999997615814,fast,0,1188530,918,main_task,21.0,15.0,11.0,84.0
8932.0,355.0,9.0,85.0,6.0,high,6,0.0,0.0,1.0,268.10000002384186,fast,0,1189803,920,main_task,21.0,15.0,12.0,85.0
8932.0,356.0,9.0,86.0,6.0,high,4,0.0,2.0,0.0,112.60000002384186,fast,0,1190920,922,main_task,21.0,15.0,0.0,86.0
8932.0,357.0,9.0,87.0,6.0,high,3,0.0,0.0,1.0,100.30000007152556,fast,0,1192025,924,main_task,21.0,13.0,11.0,87.0
8932.0,358.0,9.0,88.0,6.0,high,5,0.0,1.0,0.0,101.5,fast,0,1193131,926,main_task,21.0,12.0,0.0,88.0
8932.0,359.0,9.0,89.0,6.0,high,2,0.0,2.0,0.0,104.30000007152556,fast,0,1194239,928,main_task,21.0,15.0,0.0,89.0
8932.0,360.0,9.0,90.0,6.0,high,1,0.0,1.0,0.0,183.0,fast,0,1195426,930,main_task,21.0,16.0,0.0,90.0
8932.0,361.0,10.0,1.0,3.0,low,1,0.0,1.0,0.0,911.5,medium,0,1203079,934,main_task,22.0,14.0,0.0,1.0
8932.0,362.0,10.0,2.0,3.0,low,2,1.0,0.0,0.0,656.2999999523163,medium,0,1204740,936,main_task,22.0,17.0,0.0,2.0
8932.0,363.0,10.0,3.0,3.0,low,3,0.0,1.0,0.0,1504.399999976158,slow,0,1207249,938,main_task,22.0,18.0,0.0,3.0
8932.0,364.0,10.0,4.0,3.0,low,2,1.0,0.0,0.0,890.5,medium,0,1209145,940,main_task,22.0,17.0,0.0,4.0
8932.0,365.0,10.0,5.0,3.0,low,1,1.0,1.0,1.0,967.7000000476836,medium,0,1211119,942,main_task,22.0,14.0,1.0,5.0
8932.0,366.0,10.0,6.0,3.0,low,3,2.0,1.0,0.0,955.7000000476836,medium,0,1213079,944,main_task,22.0,18.0,0.0,6.0
8932.0,367.0,10.0,7.0,3.0,low,3,2.0,1.0,0.0,702.8999999761581,medium,0,1214786,946,main_task,22.0,18.0,0.0,7.0
8932.0,368.0,10.0,8.0,3.0,low,2,0.0,0.0,1.0,950.7000000476836,medium,0,1216741,948,main_task,22.0,17.0,1.0,8.0
8932.0,369.0,10.0,9.0,3.0,low,1,1.0,1.0,1.0,773.2999999523163,medium,0,1218519,950,main_task,22.0,14.0,2.0,9.0
8932.0,370.0,10.0,10.0,3.0,low,1,1.0,1.0,1.0,648.3999999761581,medium,0,1220173,952,main_task,22.0,14.0,3.0,10.0
8932.0,371.0,10.0,11.0,3.0,low,2,0.0,0.0,1.0,727.3999999761581,medium,0,1221904,954,main_task,22.0,17.0,2.0,11.0
8932.0,372.0,10.0,12.0,3.0,low,3,2.0,1.0,0.0,483.1999999284744,fast,0,1223392,956,main_task,22.0,18.0,0.0,12.0
8932.0,373.0,10.0,13.0,3.0,low,2,0.0,0.0,1.0,740.0999999046326,medium,0,1225139,958,main_task,22.0,17.0,3.0,13.0
8932.0,374.0,10.0,14.0,3.0,low,3,0.0,1.0,0.0,729.7000000476837,medium,0,1226873,960,main_task,22.0,18.0,0.0,14.0
8932.0,375.0,10.0,15.0,3.0,low,1,1.0,1.0,1.0,554.5,medium,0,1228432,962,main_task,22.0,14.0,4.0,15.0
8932.0,376.0,10.0,16.0,3.0,low,1,1.0,1.0,1.0,611.7999999523163,medium,0,1230048,964,main_task,22.0,14.0,5.0,16.0
8932.0,377.0,10.0,17.0,3.0,low,3,1.0,1.0,1.0,355.5,fast,0,1231409,966,main_task,22.0,18.0,1.0,17.0
8932.0,378.0,10.0,18.0,3.0,low,2,0.0,0.0,1.0,503.6999999284744,medium,0,1232916,968,main_task,22.0,17.0,4.0,18.0
8932.0,379.0,10.0,19.0,3.0,low,3,1.0,1.0,1.0,596.1000000238419,medium,0,1234517,970,main_task,22.0,18.0,2.0,19.0
8932.0,380.0,10.0,20.0,3.0,low,1,1.0,1.0,1.0,495.10000002384186,fast,0,1236017,972,main_task,22.0,14.0,6.0,20.0
8932.0,381.0,10.0,21.0,3.0,low,2,0.0,0.0,1.0,519.3000000715256,medium,0,1237542,974,main_task,22.0,17.0,5.0,21.0
8932.0,382.0,10.0,22.0,3.0,low,2,1.0,0.0,0.0,329.6999999284744,fast,0,1238877,976,main_task,22.0,17.0,0.0,22.0
8932.0,383.0,10.0,23.0,3.0,low,3,1.0,1.0,1.0,438.7000000476837,fast,0,1240320,978,main_task,22.0,18.0,3.0,23.0
8932.0,384.0,10.0,24.0,3.0,low,3,1.0,1.0,1.0,638.7000000476837,medium,0,1241964,980,main_task,22.0,18.0,4.0,24.0
8932.0,385.0,10.0,25.0,3.0,low,1,1.0,1.0,1.0,553.8999999761581,medium,0,1243524,982,main_task,22.0,14.0,7.0,25.0
8932.0,386.0,10.0,26.0,3.0,low,3,1.0,1.0,1.0,664.2000000476837,medium,0,1245193,984,main_task,22.0,18.0,5.0,26.0
8932.0,387.0,10.0,27.0,3.0,low,2,0.0,0.0,1.0,519.5,medium,0,1246717,986,main_task,22.0,17.0,1.0,27.0
8932.0,388.0,10.0,28.0,3.0,low,1,1.0,1.0,1.0,495.10000002384186,fast,0,1248216,988,main_task,22.0,14.0,8.0,28.0
8932.0,389.0,10.0,29.0,3.0,low,2,0.0,0.0,1.0,673.8999999761581,medium,0,1249895,990,main_task,22.0,17.0,2.0,29.0
8932.0,390.0,10.0,30.0,3.0,low,1,1.0,1.0,1.0,431.7999999523163,fast,0,1251331,992,main_task,22.0,14.0,9.0,30.0
8932.0,391.0,10.0,31.0,3.0,low,3,1.0,1.0,1.0,680.1999999284744,medium,0,1253017,994,main_task,22.0,18.0,6.0,31.0
8932.0,392.0,10.0,32.0,3.0,low,2,0.0,0.0,1.0,632.6999999284744,medium,0,1254656,996,main_task,22.0,17.0,3.0,32.0
8932.0,393.0,10.0,33.0,3.0,low,1,1.0,1.0,1.0,469.59999990463257,fast,0,1256130,998,main_task,22.0,14.0,10.0,33.0
8932.0,394.0,10.0,34.0,3.0,low,1,1.0,1.0,1.0,620.5,medium,0,1257753,1000,main_task,22.0,14.0,11.0,34.0
8932.0,395.0,10.0,35.0,3.0,low,3,1.0,1.0,1.0,558.5,medium,0,1259316,1002,main_task,22.0,18.0,7.0,35.0
8932.0,396.0,10.0,36.0,3.0,low,2,0.0,0.0,1.0,550.2000000476837,medium,0,1260872,1004,main_task,22.0,17.0,4.0,36.0
8932.0,397.0,10.0,37.0,3.0,low,2,0.0,0.0,1.0,530.3999999761581,medium,0,1262408,1006,main_task,22.0,17.0,5.0,37.0
8932.0,398.0,10.0,38.0,3.0,low,3,1.0,1.0,1.0,513.1000000238419,medium,0,1263926,1008,main_task,22.0,18.0,8.0,38.0
8932.0,399.0,10.0,39.0,3.0,low,1,1.0,1.0,1.0,656.6999999284744,medium,0,1265588,1010,main_task,22.0,14.0,12.0,39.0
8932.0,400.0,10.0,40.0,3.0,low,1,1.0,1.0,1.0,414.6999999284744,fast,0,1267008,1012,main_task,22.0,14.0,13.0,40.0
8932.0,401.0,10.0,41.0,3.0,low,2,1.0,0.0,0.0,394.6999999284744,fast,0,1268408,1014,main_task,22.0,17.0,0.0,41.0
8932.0,402.0,10.0,42.0,3.0,low,1,1.0,1.0,1.0,483.8999999761581,fast,0,1269897,1016,main_task,22.0,14.0,14.0,42.0
8932.0,403.0,10.0,43.0,3.0,low,3,1.0,1.0,1.0,586.6999999284744,medium,0,1271487,1018,main_task,22.0,18.0,9.0,43.0
8932.0,404.0,10.0,44.0,3.0,low,2,0.0,0.0,1.0,682.3000000715256,medium,0,1273175,1020,main_task,22.0,17.0,1.0,44.0
8932.0,405.0,10.0,45.0,3.0,low,3,1.0,1.0,1.0,426.60000002384186,fast,0,1274607,1022,main_task,22.0,18.0,10.0,45.0
8932.0,406.0,11.0,1.0,2.0,low,1,0.0,1.0,0.0,870.1000000238419,medium,0,1281239,1026,main_task,10.0,14.0,0.0,1.0
8932.0,407.0,11.0,2.0,2.0,low,2,0.0,2.0,0.0,571.7000000476837,medium,0,1282816,1028,main_task,10.0,14.0,0.0,2.0
8932.0,408.0,11.0,3.0,2.0,low,1,1.0,1.0,1.0,510.2000000476837,medium,0,1284331,1030,main_task,10.0,14.0,1.0,3.0
8932.0,409.0,11.0,4.0,2.0,low,2,1.0,2.0,0.0,427.7000000476837,fast,0,1285763,1032,main_task,10.0,14.0,0.0,4.0
8932.0,410.0,11.0,5.0,2.0,low,2,2.0,2.0,1.0,722.2999999523163,medium,0,1287490,1034,main_task,10.0,14.0,1.0,5.0
8932.0,411.0,11.0,6.0,2.0,low,1,1.0,1.0,1.0,448.7999999523163,fast,0,1288944,1036,main_task,10.0,14.0,2.0,6.0
8932.0,412.0,11.0,7.0,2.0,low,1,1.0,1.0,1.0,518.7999999523163,medium,0,1290467,1038,main_task,10.0,14.0,3.0,7.0
8932.0,413.0,11.0,8.0,2.0,low,2,2.0,2.0,1.0,360.5,fast,0,1291831,1040,main_task,10.0,14.0,2.0,8.0
8932.0,414.0,11.0,9.0,2.0,low,1,1.0,1.0,1.0,577.1000000238419,medium,0,1293412,1042,main_task,10.0,14.0,4.0,9.0
8932.0,415.0,11.0,10.0,2.0,low,2,2.0,2.0,1.0,393.6999999284744,fast,0,1294811,1044,main_task,10.0,14.0,3.0,10.0
8932.0,416.0,11.0,11.0,2.0,low,2,2.0,2.0,1.0,609.0999999046326,medium,0,1296424,1046,main_task,10.0,14.0,4.0,11.0
8932.0,417.0,11.0,12.0,2.0,low,1,1.0,1.0,1.0,521.7000000476837,medium,0,1297951,1048,main_task,10.0,14.0,5.0,12.0
8932.0,418.0,11.0,13.0,2.0,low,1,1.0,1.0,1.0,624.1000000238419,medium,0,1299580,1050,main_task,10.0,14.0,6.0,13.0
8932.0,419.0,11.0,14.0,2.0,low,2,2.0,2.0,1.0,593.8999999761581,medium,0,1301180,1052,main_task,10.0,14.0,5.0,14.0
8932.0,420.0,11.0,15.0,2.0,low,1,1.0,1.0,1.0,730.8000000715256,medium,0,1302915,1054,main_task,10.0,14.0,7.0,15.0
8932.0,421.0,11.0,16.0,2.0,low,1,1.0,1.0,1.0,496.3999999761581,fast,0,1304417,1056,main_task,10.0,14.0,8.0,16.0
8932.0,422.0,11.0,17.0,2.0,low,2,2.0,2.0,1.0,826.0,medium,0,1306249,1058,main_task,10.0,14.0,6.0,17.0
8932.0,423.0,11.0,18.0,2.0,low,2,2.0,2.0,1.0,490.3999999761581,fast,0,1307745,1060,main_task,10.0,14.0,7.0,18.0
8932.0,424.0,11.0,19.0,2.0,low,1,1.0,1.0,1.0,561.2000000476837,medium,0,1309311,1062,main_task,10.0,14.0,9.0,19.0
8932.0,425.0,11.0,20.0,2.0,low,2,2.0,2.0,1.0,841.8000000715256,medium,0,1311156,1064,main_task,10.0,14.0,8.0,20.0
8932.0,426.0,11.0,21.0,2.0,low,1,1.0,1.0,1.0,524.6000000238419,medium,0,1312686,1066,main_task,10.0,14.0,10.0,21.0
8932.0,427.0,11.0,22.0,2.0,low,1,1.0,1.0,1.0,652.6000000238419,medium,0,1314342,1068,main_task,10.0,14.0,11.0,22.0
8932.0,428.0,11.0,23.0,2.0,low,2,2.0,2.0,1.0,521.1999999284744,medium,0,1315868,1070,main_task,10.0,14.0,9.0,23.0
8932.0,429.0,11.0,24.0,2.0,low,2,2.0,2.0,1.0,1048.7000000476835,slow,0,1317921,1072,main_task,10.0,14.0,10.0,24.0
8932.0,430.0,11.0,25.0,2.0,low,1,1.0,1.0,1.0,589.2000000476837,medium,0,1319516,1074,main_task,10.0,14.0,12.0,25.0
8932.0,431.0,11.0,26.0,2.0,low,2,2.0,2.0,1.0,534.3000000715256,medium,0,1321055,1076,main_task,10.0,14.0,11.0,26.0
8932.0,432.0,11.0,27.0,2.0,low,2,2.0,2.0,1.0,633.5,medium,0,1322694,1078,main_task,10.0,14.0,12.0,27.0
8932.0,433.0,11.0,28.0,2.0,low,1,1.0,1.0,1.0,616.6999999284744,medium,0,1324315,1080,main_task,10.0,14.0,13.0,28.0
8932.0,434.0,11.0,29.0,2.0,low,2,2.0,2.0,1.0,517.6000000238419,medium,0,1325838,1082,main_task,10.0,14.0,13.0,29.0
8932.0,435.0,11.0,30.0,2.0,low,1,1.0,1.0,1.0,687.0,medium,0,1327530,1084,main_task,10.0,14.0,14.0,30.0
8932.0,436.0,13.0,1.0,5.0,high,1,0.0,0.0,1.0,875.2000000476837,medium,0,1333266,1088,main_task,15.0,14.0,1.0,1.0
8932.0,437.0,13.0,2.0,5.0,high,2,0.0,1.0,0.0,263.7000000476837,fast,0,1334534,1090,main_task,15.0,15.0,0.0,2.0
8932.0,438.0,13.0,3.0,5.0,high,3,0.0,2.0,0.0,262.59999990463257,fast,0,1335802,1092,main_task,15.0,13.0,0.0,3.0
8932.0,439.0,13.0,4.0,5.0,high,4,0.0,0.0,1.0,313.89999997615814,fast,0,1337121,1094,main_task,15.0,14.0,1.0,4.0
8932.0,440.0,13.0,5.0,5.0,high,5,0.0,2.0,0.0,347.09999990463257,fast,0,1338473,1096,main_task,15.0,12.0,0.0,5.0
8932.0,441.0,13.0,6.0,5.0,high,3,0.0,2.0,0.0,362.7000000476837,fast,0,1339841,1098,main_task,15.0,13.0,0.0,6.0
8932.0,442.0,13.0,7.0,5.0,high,1,0.0,0.0,1.0,1188.0,slow,0,1342034,1100,main_task,15.0,14.0,2.0,7.0
8932.0,443.0,13.0,8.0,5.0,high,4,1.0,0.0,0.0,633.5,medium,0,1343672,1102,main_task,15.0,14.0,0.0,8.0
8932.0,444.0,13.0,9.0,5.0,high,2,1.0,1.0,1.0,511.60000002384186,medium,0,1345188,1104,main_task,15.0,15.0,1.0,9.0
8932.0,445.0,13.0,10.0,5.0,high,5,1.0,2.0,0.0,557.5999999046326,medium,0,1346751,1106,main_task,15.0,12.0,0.0,10.0
8932.0,446.0,13.0,11.0,5.0,high,5,1.0,2.0,0.0,491.2000000476837,fast,0,1348246,1108,main_task,15.0,12.0,0.0,11.0
8932.0,447.0,13.0,12.0,5.0,high,4,1.0,0.0,0.0,789.0,medium,0,1350039,1110,main_task,15.0,14.0,0.0,12.0
8932.0,448.0,13.0,13.0,5.0,high,3,0.0,2.0,0.0,269.10000002384186,fast,0,1351312,1112,main_task,15.0,13.0,0.0,13.0
8932.0,449.0,13.0,14.0,5.0,high,2,0.0,1.0,0.0,257.89999997615814,fast,0,1352575,1114,main_task,15.0,15.0,0.0,14.0
8932.0,450.0,13.0,15.0,5.0,high,1,0.0,0.0,1.0,745.5,medium,0,1354326,1116,main_task,15.0,14.0,3.0,15.0
8932.0,451.0,13.0,16.0,5.0,high,2,0.0,1.0,0.0,266.39999997615814,fast,0,1355598,1118,main_task,15.0,15.0,0.0,16.0
8932.0,452.0,13.0,17.0,5.0,high,1,0.0,0.0,1.0,195.0,fast,0,1356798,1120,main_task,15.0,14.0,4.0,17.0
8932.0,453.0,13.0,18.0,5.0,high,4,0.0,0.0,1.0,202.8999999761581,fast,0,1358006,1122,main_task,15.0,14.0,1.0,18.0
8932.0,454.0,13.0,19.0,5.0,high,5,0.0,2.0,0.0,324.2000000476837,fast,0,1359335,1124,main_task,15.0,12.0,0.0,19.0
8932.0,455.0,13.0,20.0,5.0,high,1,0.0,0.0,1.0,65.39999997615814,fast,0,1360405,1126,main_task,15.0,14.0,5.0,20.0
8932.0,456.0,13.0,21.0,5.0,high,3,0.0,2.0,0.0,527.6000000238419,medium,0,1361937,1128,main_task,15.0,13.0,0.0,21.0
8932.0,457.0,13.0,22.0,5.0,high,3,0.0,2.0,0.0,556.3000000715256,medium,0,1363498,1130,main_task,15.0,13.0,0.0,22.0
8932.0,458.0,13.0,23.0,5.0,high,4,0.0,0.0,1.0,52.29999995231629,fast,0,1364554,1132,main_task,15.0,14.0,2.0,23.0
8932.0,459.0,13.0,24.0,5.0,high,1,-1.0,0.0,0.0,,,0,1367561,1134,main_task,15.0,14.0,0.0,24.0
8932.0,460.0,13.0,25.0,5.0,high,2,0.0,1.0,0.0,102.80000007152556,fast,0,1368668,1136,main_task,15.0,15.0,0.0,25.0
8932.0,461.0,13.0,26.0,5.0,high,5,0.0,2.0,0.0,96.79999995231628,fast,0,1369770,1138,main_task,15.0,12.0,0.0,26.0
8932.0,462.0,13.0,27.0,5.0,high,5,0.0,2.0,0.0,1080.2999999523165,slow,0,1371855,1140,main_task,15.0,12.0,0.0,27.0
8932.0,463.0,13.0,28.0,5.0,high,3,0.0,2.0,0.0,234.0,fast,0,1373093,1142,main_task,15.0,13.0,0.0,28.0
8932.0,464.0,13.0,29.0,5.0,high,4,0.0,0.0,1.0,924.7999999523164,medium,0,1375024,1144,main_task,15.0,14.0,3.0,29.0
8932.0,465.0,13.0,30.0,5.0,high,2,0.0,1.0,0.0,327.10000002384186,fast,0,1376357,1146,main_task,15.0,15.0,0.0,30.0
8932.0,466.0,13.0,31.0,5.0,high,4,0.0,0.0,1.0,208.0,fast,0,1377570,1148,main_task,15.0,14.0,4.0,31.0
8932.0,467.0,13.0,32.0,5.0,high,2,0.0,1.0,0.0,508.0,medium,0,1379082,1150,main_task,15.0,15.0,0.0,32.0
8932.0,468.0,13.0,33.0,5.0,high,1,0.0,0.0,1.0,230.29999995231628,fast,0,1380318,1152,main_task,15.0,14.0,1.0,33.0
8932.0,469.0,13.0,34.0,5.0,high,4,0.0,0.0,1.0,1259.100000023842,slow,0,1382581,1154,main_task,15.0,14.0,5.0,34.0
8932.0,470.0,13.0,35.0,5.0,high,5,0.0,2.0,0.0,679.7999999523163,medium,0,1384266,1156,main_task,15.0,12.0,0.0,35.0
8932.0,471.0,13.0,36.0,5.0,high,3,0.0,2.0,0.0,721.6999999284744,medium,0,1385992,1158,main_task,15.0,13.0,0.0,36.0
8932.0,472.0,13.0,37.0,5.0,high,1,0.0,0.0,1.0,1434.100000023842,slow,0,1388432,1160,main_task,15.0,14.0,2.0,37.0
8932.0,473.0,13.0,38.0,5.0,high,5,0.0,2.0,0.0,1410.5,slow,0,1390846,1162,main_task,15.0,12.0,0.0,38.0
8932.0,474.0,13.0,39.0,5.0,high,2,0.0,1.0,0.0,812.0,medium,0,1392662,1164,main_task,15.0,15.0,0.0,39.0
8932.0,475.0,13.0,40.0,5.0,high,2,0.0,1.0,0.0,996.8000000715256,medium,0,1394662,1166,main_task,15.0,15.0,0.0,40.0
8932.0,476.0,13.0,41.0,5.0,high,3,0.0,2.0,0.0,609.1000000238419,medium,0,1396276,1168,main_task,15.0,13.0,0.0,41.0
8932.0,477.0,13.0,42.0,5.0,high,3,0.0,2.0,0.0,334.0,fast,0,1397616,1170,main_task,15.0,13.0,0.0,42.0
8932.0,478.0,13.0,43.0,5.0,high,4,0.0,0.0,1.0,336.7999999523163,fast,0,1398957,1172,main_task,15.0,14.0,6.0,43.0
8932.0,479.0,13.0,44.0,5.0,high,1,0.0,0.0,1.0,372.6999999284744,fast,0,1400334,1174,main_task,15.0,14.0,3.0,44.0
8932.0,480.0,13.0,45.0,5.0,high,5,0.0,2.0,0.0,430.8000000715256,fast,0,1401770,1176,main_task,15.0,12.0,0.0,45.0
8932.0,481.0,13.0,46.0,5.0,high,4,0.0,0.0,1.0,220.2000000476837,fast,0,1402994,1178,main_task,15.0,14.0,7.0,46.0
8932.0,482.0,13.0,47.0,5.0,high,5,0.0,2.0,0.0,7.200000047683716,fast,0,1404006,1180,main_task,15.0,12.0,0.0,47.0
8932.0,483.0,13.0,48.0,5.0,high,3,0.0,2.0,0.0,269.90000009536743,fast,0,1405281,1182,main_task,15.0,13.0,0.0,48.0
8932.0,484.0,13.0,49.0,5.0,high,2,0.0,1.0,0.0,359.5,fast,0,1406644,1184,main_task,15.0,15.0,0.0,49.0
8932.0,485.0,13.0,50.0,5.0,high,1,0.0,0.0,1.0,619.3999999761581,medium,0,1408269,1186,main_task,15.0,14.0,4.0,50.0
8932.0,486.0,13.0,51.0,5.0,high,5,0.0,2.0,0.0,388.59999990463257,fast,0,1409663,1188,main_task,15.0,12.0,0.0,51.0
8932.0,487.0,13.0,52.0,5.0,high,3,0.0,2.0,0.0,183.8000000715256,fast,0,1410850,1190,main_task,15.0,13.0,0.0,52.0
8932.0,488.0,13.0,53.0,5.0,high,1,0.0,0.0,1.0,416.60000002384186,fast,0,1412272,1192,main_task,15.0,14.0,5.0,53.0
8932.0,489.0,13.0,54.0,5.0,high,2,0.0,1.0,0.0,729.8999999761581,medium,0,1414007,1194,main_task,15.0,15.0,0.0,54.0
8932.0,490.0,13.0,55.0,5.0,high,4,0.0,0.0,1.0,457.59999990463257,fast,0,1415469,1196,main_task,15.0,14.0,8.0,55.0
8932.0,491.0,13.0,56.0,5.0,high,4,0.0,0.0,1.0,61.80000007152557,fast,0,1416536,1198,main_task,15.0,14.0,9.0,56.0
8932.0,492.0,13.0,57.0,5.0,high,5,0.0,2.0,0.0,161.5,fast,0,1417702,1200,main_task,15.0,12.0,0.0,57.0
8932.0,493.0,13.0,58.0,5.0,high,2,0.0,1.0,0.0,472.8999999761581,fast,0,1419179,1202,main_task,15.0,15.0,0.0,58.0
8932.0,494.0,13.0,59.0,5.0,high,3,0.0,2.0,0.0,210.10000002384183,fast,0,1420395,1204,main_task,15.0,13.0,0.0,59.0
8932.0,495.0,13.0,60.0,5.0,high,2,0.0,1.0,0.0,21.10000002384185,fast,0,1421422,1206,main_task,15.0,15.0,0.0,60.0
8932.0,496.0,13.0,61.0,5.0,high,1,0.0,0.0,1.0,327.59999990463257,fast,0,1422755,1208,main_task,15.0,14.0,6.0,61.0
8932.0,497.0,13.0,62.0,5.0,high,3,0.0,2.0,0.0,525.4000000953674,medium,0,1424286,1210,main_task,15.0,13.0,0.0,62.0
8932.0,498.0,13.0,63.0,5.0,high,1,0.0,0.0,1.0,329.3000000715256,fast,0,1425619,1212,main_task,15.0,14.0,7.0,63.0
8932.0,499.0,13.0,64.0,5.0,high,4,0.0,0.0,1.0,365.7000000476837,fast,0,1426989,1214,main_task,15.0,14.0,10.0,64.0
8932.0,500.0,13.0,65.0,5.0,high,4,0.0,0.0,1.0,177.39999997615814,fast,0,1428170,1216,main_task,15.0,14.0,11.0,65.0
8932.0,501.0,13.0,66.0,5.0,high,5,0.0,2.0,0.0,704.9000000953674,medium,0,1429880,1218,main_task,15.0,12.0,0.0,66.0
8932.0,502.0,13.0,67.0,5.0,high,3,0.0,2.0,0.0,399.5,fast,0,1431284,1220,main_task,15.0,13.0,0.0,67.0
8932.0,503.0,13.0,68.0,5.0,high,5,0.0,2.0,0.0,955.899999976158,medium,0,1433245,1222,main_task,15.0,12.0,0.0,68.0
8932.0,504.0,13.0,69.0,5.0,high,2,0.0,1.0,0.0,736.7999999523163,medium,0,1434986,1224,main_task,15.0,15.0,0.0,69.0
8932.0,505.0,13.0,70.0,5.0,high,1,0.0,0.0,1.0,681.7999999523163,medium,0,1436673,1226,main_task,15.0,14.0,8.0,70.0
8932.0,506.0,13.0,71.0,5.0,high,4,0.0,0.0,1.0,342.1999999284744,fast,0,1438020,1228,main_task,15.0,14.0,12.0,71.0
8932.0,507.0,13.0,72.0,5.0,high,5,0.0,2.0,0.0,115.0,fast,0,1439139,1230,main_task,15.0,12.0,0.0,72.0
8932.0,508.0,13.0,73.0,5.0,high,1,0.0,0.0,1.0,76.29999995231628,fast,0,1440221,1232,main_task,15.0,14.0,9.0,73.0
8932.0,509.0,13.0,74.0,5.0,high,2,0.0,1.0,0.0,606.6999999284744,medium,0,1441832,1234,main_task,15.0,15.0,0.0,74.0
8932.0,510.0,13.0,75.0,5.0,high,3,0.0,2.0,0.0,944.2000000476836,medium,0,1443782,1236,main_task,15.0,13.0,0.0,75.0
8932.0,511.0,14.0,1.0,6.0,high,1,0.0,0.0,1.0,80.69999992847443,fast,0,1452679,1240,main_task,2.0,17.0,1.0,1.0
8932.0,512.0,14.0,2.0,6.0,high,2,0.0,1.0,0.0,248.3999999761581,fast,0,1453932,1242,main_task,2.0,13.0,0.0,2.0
8932.0,513.0,14.0,3.0,6.0,high,3,0.0,0.0,1.0,309.2999999523163,fast,0,1455247,1244,main_task,2.0,18.0,1.0,3.0
8932.0,514.0,14.0,4.0,6.0,high,4,0.0,0.0,1.0,305.0,fast,0,1456556,1246,main_task,2.0,12.0,1.0,4.0
8932.0,515.0,14.0,5.0,6.0,high,5,0.0,2.0,0.0,235.19999992847443,fast,0,1457798,1248,main_task,2.0,18.0,0.0,5.0
8932.0,516.0,14.0,6.0,6.0,high,6,0.0,0.0,1.0,193.10000002384183,fast,0,1458995,1250,main_task,2.0,14.0,1.0,6.0
8932.0,517.0,14.0,7.0,6.0,high,4,0.0,0.0,1.0,384.2999999523163,fast,0,1460384,1252,main_task,2.0,12.0,2.0,7.0
8932.0,518.0,14.0,8.0,6.0,high,3,0.0,0.0,1.0,858.7000000476837,medium,0,1462248,1254,main_task,2.0,18.0,2.0,8.0
8932.0,519.0,14.0,9.0,6.0,high,1,0.0,0.0,1.0,870.5,medium,0,1464123,1256,main_task,2.0,17.0,2.0,9.0
8932.0,520.0,14.0,10.0,6.0,high,6,0.0,0.0,1.0,849.4000000953674,medium,0,1465977,1258,main_task,2.0,14.0,2.0,10.0
8932.0,521.0,14.0,11.0,6.0,high,2,0.0,1.0,0.0,1003.8000000715256,slow,0,1467987,1260,main_task,2.0,13.0,0.0,11.0
8932.0,522.0,14.0,12.0,6.0,high,5,-1.0,2.0,0.0,,,0,1470993,1262,main_task,2.0,18.0,0.0,12.0
8932.0,523.0,14.0,13.0,6.0,high,5,0.0,2.0,0.0,223.8000000715256,fast,0,1472220,1264,main_task,2.0,18.0,0.0,13.0
8932.0,524.0,14.0,14.0,6.0,high,3,0.0,0.0,1.0,19.10000002384185,fast,0,1473244,1266,main_task,2.0,18.0,3.0,14.0
8932.0,525.0,14.0,15.0,6.0,high,2,0.0,1.0,0.0,810.6999999284744,medium,0,1475060,1268,main_task,2.0,13.0,0.0,15.0
8932.0,526.0,14.0,16.0,6.0,high,4,0.0,0.0,1.0,67.29999995231628,fast,0,1476132,1270,main_task,2.0,12.0,3.0,16.0
8932.0,527.0,14.0,17.0,6.0,high,1,0.0,0.0,1.0,48.40000009536743,fast,0,1477185,1272,main_task,2.0,17.0,3.0,17.0
8932.0,528.0,14.0,18.0,6.0,high,4,0.0,0.0,1.0,642.0,medium,0,1478831,1274,main_task,2.0,12.0,4.0,18.0
8932.0,529.0,14.0,19.0,6.0,high,1,0.0,0.0,1.0,1534.2000000476835,slow,0,1481371,1276,main_task,2.0,17.0,4.0,19.0
8932.0,530.0,14.0,20.0,6.0,high,6,0.0,0.0,1.0,893.0,medium,0,1483267,1278,main_task,2.0,14.0,3.0,20.0
8932.0,531.0,14.0,21.0,6.0,high,2,-1.0,1.0,0.0,,,0,1486275,1280,main_task,2.0,13.0,0.0,21.0
8932.0,532.0,14.0,22.0,6.0,high,1,0.0,0.0,1.0,1131.6999999284744,slow,0,1488411,1282,main_task,2.0,17.0,5.0,22.0
8932.0,533.0,14.0,23.0,6.0,high,5,0.0,2.0,0.0,354.2999999523163,fast,0,1489771,1284,main_task,2.0,18.0,0.0,23.0
8932.0,534.0,14.0,24.0,6.0,high,5,0.0,2.0,0.0,645.7999999523163,medium,0,1491420,1286,main_task,2.0,18.0,0.0,24.0
8932.0,535.0,14.0,25.0,6.0,high,3,0.0,0.0,1.0,1042.600000023842,slow,0,1493466,1288,main_task,2.0,18.0,4.0,25.0
8932.0,536.0,14.0,26.0,6.0,high,6,0.0,0.0,1.0,975.7000000476836,medium,0,1495447,1290,main_task,2.0,14.0,4.0,26.0
8932.0,537.0,14.0,27.0,6.0,high,6,0.0,0.0,1.0,451.3999999761581,fast,0,1496904,1292,main_task,2.0,14.0,5.0,27.0
8932.0,538.0,14.0,28.0,6.0,high,2,-1.0,1.0,0.0,,,0,1499910,1294,main_task,2.0,13.0,0.0,28.0
8932.0,539.0,14.0,29.0,6.0,high,4,-1.0,0.0,0.0,,,0,1502916,1296,main_task,2.0,12.0,0.0,29.0
8932.0,540.0,14.0,30.0,6.0,high,3,0.0,0.0,1.0,1026.899999976158,slow,0,1504947,1298,main_task,2.0,18.0,5.0,30.0
8932.0,541.0,14.0,31.0,6.0,high,6,0.0,0.0,1.0,534.2000000476837,medium,0,1506486,1300,main_task,2.0,14.0,6.0,31.0
8932.0,542.0,14.0,32.0,6.0,high,5,0.0,2.0,0.0,377.7999999523163,fast,0,1507868,1302,main_task,2.0,18.0,0.0,32.0
8932.0,543.0,14.0,33.0,6.0,high,1,0.0,0.0,1.0,1682.2999999523165,slow,0,1510556,1304,main_task,2.0,17.0,6.0,33.0
8932.0,544.0,14.0,34.0,6.0,high,4,0.0,0.0,1.0,564.4000000953674,medium,0,1512124,1306,main_task,2.0,12.0,1.0,34.0
8932.0,545.0,14.0,35.0,6.0,high,2,0.0,1.0,0.0,930.0999999046326,medium,0,1514059,1308,main_task,2.0,13.0,0.0,35.0
8932.0,546.0,14.0,36.0,6.0,high,3,0.0,0.0,1.0,1370.1999999284744,slow,0,1516434,1310,main_task,2.0,18.0,6.0,36.0
8932.0,547.0,14.0,37.0,6.0,high,4,0.0,0.0,1.0,1817.6999999284744,slow,0,1519255,1312,main_task,2.0,12.0,2.0,37.0
8932.0,548.0,14.0,38.0,6.0,high,3,0.0,0.0,1.0,284.6999999284744,fast,0,1520543,1314,main_task,2.0,18.0,7.0,38.0
8932.0,549.0,14.0,39.0,6.0,high,6,0.0,0.0,1.0,1823.200000047684,slow,0,1523370,1316,main_task,2.0,14.0,7.0,39.0
8932.0,550.0,14.0,40.0,6.0,high,2,-1.0,1.0,0.0,,,0,1526375,1318,main_task,2.0,13.0,0.0,40.0
8932.0,551.0,14.0,41.0,6.0,high,5,-1.0,2.0,0.0,,,0,1529383,1320,main_task,2.0,18.0,0.0,41.0
8932.0,552.0,14.0,42.0,6.0,high,1,0.0,0.0,1.0,1058.7000000476835,slow,0,1531446,1322,main_task,2.0,17.0,7.0,42.0
8932.0,553.0,14.0,43.0,6.0,high,1,0.0,0.0,1.0,104.19999992847444,fast,0,1532556,1324,main_task,2.0,17.0,8.0,43.0
8932.0,554.0,14.0,44.0,6.0,high,4,-1.0,0.0,0.0,,,0,1535561,1326,main_task,2.0,12.0,0.0,44.0
8932.0,555.0,14.0,45.0,6.0,high,5,0.0,2.0,0.0,131.10000002384186,fast,0,1536698,1328,main_task,2.0,18.0,0.0,45.0
8932.0,556.0,14.0,46.0,6.0,high,6,0.0,0.0,1.0,750.8999999761581,medium,0,1538453,1330,main_task,2.0,14.0,8.0,46.0
8932.0,557.0,14.0,47.0,6.0,high,4,0.0,0.0,1.0,71.20000004768372,fast,0,1539529,1332,main_task,2.0,12.0,1.0,47.0
8932.0,558.0,14.0,48.0,6.0,high,3,0.0,0.0,1.0,263.2999999523163,fast,0,1540797,1334,main_task,2.0,18.0,8.0,48.0
8932.0,559.0,14.0,49.0,6.0,high,2,0.0,1.0,0.0,174.20000004768372,fast,0,1541977,1336,main_task,2.0,13.0,0.0,49.0
8932.0,560.0,14.0,50.0,6.0,high,3,0.0,0.0,1.0,366.10000002384186,fast,0,1543349,1338,main_task,2.0,18.0,9.0,50.0
8932.0,561.0,14.0,51.0,6.0,high,6,0.0,0.0,1.0,94.10000002384186,fast,0,1544448,1340,main_task,2.0,14.0,9.0,51.0
8932.0,562.0,14.0,52.0,6.0,high,2,0.0,1.0,0.0,743.0,medium,0,1546196,1342,main_task,2.0,13.0,0.0,52.0
8932.0,563.0,14.0,53.0,6.0,high,1,0.0,0.0,1.0,528.0,medium,0,1547726,1344,main_task,2.0,17.0,9.0,53.0
8932.0,564.0,14.0,54.0,6.0,high,2,0.0,1.0,0.0,697.6000000238419,medium,0,1549429,1346,main_task,2.0,13.0,0.0,54.0
8932.0,565.0,14.0,55.0,6.0,high,5,0.0,2.0,0.0,601.1000000238419,medium,0,1551036,1348,main_task,2.0,18.0,0.0,55.0
8932.0,566.0,14.0,56.0,6.0,high,5,0.0,2.0,0.0,134.79999995231628,fast,0,1552175,1350,main_task,2.0,18.0,0.0,56.0
8932.0,567.0,14.0,57.0,6.0,high,6,0.0,0.0,1.0,705.0999999046326,medium,0,1553885,1352,main_task,2.0,14.0,10.0,57.0
8932.0,568.0,14.0,58.0,6.0,high,4,0.0,0.0,1.0,268.8000000715256,fast,0,1555159,1354,main_task,2.0,12.0,2.0,58.0
8932.0,569.0,14.0,59.0,6.0,high,1,0.0,0.0,1.0,700.0,medium,0,1556863,1356,main_task,2.0,17.0,10.0,59.0
8932.0,570.0,14.0,60.0,6.0,high,3,0.0,0.0,1.0,891.0,medium,0,1558759,1358,main_task,2.0,18.0,10.0,60.0
8932.0,571.0,14.0,61.0,6.0,high,6,0.0,0.0,1.0,1086.399999976158,slow,0,1560851,1360,main_task,2.0,14.0,11.0,61.0
8932.0,572.0,14.0,62.0,6.0,high,2,0.0,1.0,0.0,367.1999999284744,fast,0,1562223,1362,main_task,2.0,13.0,0.0,62.0
8932.0,573.0,14.0,63.0,6.0,high,5,0.0,2.0,0.0,819.1000000238419,medium,0,1564047,1364,main_task,2.0,18.0,0.0,63.0
8932.0,574.0,14.0,64.0,6.0,high,1,-1.0,0.0,0.0,,,0,1567055,1366,main_task,2.0,17.0,0.0,64.0
8932.0,575.0,14.0,65.0,6.0,high,1,0.0,0.0,1.0,487.0,fast,0,1568547,1368,main_task,2.0,17.0,1.0,65.0
8932.0,576.0,14.0,66.0,6.0,high,4,0.0,0.0,1.0,211.7000000476837,fast,0,1569763,1370,main_task,2.0,12.0,3.0,66.0
8932.0,577.0,14.0,67.0,6.0,high,3,0.0,0.0,1.0,1815.399999976158,slow,0,1572585,1372,main_task,2.0,18.0,11.0,67.0
8932.0,578.0,14.0,68.0,6.0,high,4,0.0,0.0,1.0,1169.5,slow,0,1574759,1374,main_task,2.0,12.0,4.0,68.0
8932.0,579.0,14.0,69.0,6.0,high,1,0.0,0.0,1.0,1408.100000023842,slow,0,1577171,1376,main_task,2.0,17.0,2.0,69.0
8932.0,580.0,14.0,70.0,6.0,high,3,0.0,0.0,1.0,1477.7000000476835,slow,0,1579654,1378,main_task,2.0,18.0,12.0,70.0
8932.0,581.0,14.0,71.0,6.0,high,2,0.0,1.0,0.0,513.8999999761581,medium,0,1581173,1380,main_task,2.0,13.0,0.0,71.0
8932.0,582.0,14.0,72.0,6.0,high,6,-1.0,0.0,0.0,,,0,1584180,1382,main_task,2.0,14.0,0.0,72.0
8932.0,583.0,14.0,73.0,6.0,high,5,0.0,2.0,0.0,513.1000000238419,medium,0,1585697,1384,main_task,2.0,18.0,0.0,73.0
8932.0,584.0,14.0,74.0,6.0,high,6,0.0,0.0,1.0,122.20000004768372,fast,0,1586823,1386,main_task,2.0,14.0,1.0,74.0
8932.0,585.0,14.0,75.0,6.0,high,3,0.0,0.0,1.0,703.0,medium,0,1588532,1388,main_task,2.0,18.0,13.0,75.0
8932.0,586.0,14.0,76.0,6.0,high,5,0.0,2.0,0.0,675.3000000715256,medium,0,1590212,1390,main_task,2.0,18.0,0.0,76.0
8932.0,587.0,14.0,77.0,6.0,high,4,0.0,0.0,1.0,127.89999997615814,fast,0,1591345,1392,main_task,2.0,12.0,5.0,77.0
8932.0,588.0,14.0,78.0,6.0,high,4,0.0,0.0,1.0,681.3999999761581,medium,0,1593032,1394,main_task,2.0,12.0,6.0,78.0
8932.0,589.0,14.0,79.0,6.0,high,2,0.0,1.0,0.0,13.599999904632568,fast,0,1594051,1396,main_task,2.0,13.0,0.0,79.0
8932.0,590.0,14.0,80.0,6.0,high,1,0.0,0.0,1.0,466.5,fast,0,1595523,1398,main_task,2.0,17.0,3.0,80.0
8932.0,591.0,14.0,81.0,6.0,high,3,0.0,0.0,1.0,174.5,fast,0,1596703,1400,main_task,2.0,18.0,14.0,81.0
8932.0,592.0,14.0,82.0,6.0,high,5,-1.0,2.0,0.0,,,0,1599711,1402,main_task,2.0,18.0,0.0,82.0
8932.0,593.0,14.0,83.0,6.0,high,2,0.0,1.0,0.0,769.1000000238419,medium,0,1601485,1404,main_task,2.0,13.0,0.0,83.0
8932.0,594.0,14.0,84.0,6.0,high,3,0.0,0.0,1.0,472.3999999761581,fast,0,1602961,1406,main_task,2.0,18.0,15.0,84.0
8932.0,595.0,14.0,85.0,6.0,high,6,0.0,0.0,1.0,562.7000000476837,medium,0,1604528,1408,main_task,2.0,14.0,2.0,85.0
8932.0,596.0,14.0,86.0,6.0,high,5,0.0,2.0,0.0,415.2999999523163,fast,0,1605948,1410,main_task,2.0,18.0,0.0,86.0
8932.0,597.0,14.0,87.0,6.0,high,6,0.0,0.0,1.0,469.2999999523163,fast,0,1607423,1412,main_task,2.0,14.0,3.0,87.0
8932.0,598.0,14.0,88.0,6.0,high,4,0.0,0.0,1.0,1553.5,slow,0,1609981,1414,main_task,2.0,12.0,7.0,88.0
8932.0,599.0,14.0,89.0,6.0,high,1,0.0,0.0,1.0,446.7000000476837,fast,0,1611433,1416,main_task,2.0,17.0,4.0,89.0
8932.0,600.0,14.0,90.0,6.0,high,2,0.0,1.0,0.0,567.8999999761581,medium,0,1613006,1418,main_task,2.0,13.0,0.0,90.0
8932.0,601.0,16.0,1.0,5.0,high,1,0.0,2.0,0.0,744.7999999523163,medium,0,1648948,1422,main_task,14.0,17.0,0.0,1.0
8932.0,602.0,16.0,2.0,5.0,high,2,0.0,0.0,1.0,417.3000000715256,fast,0,1650370,1424,main_task,14.0,14.0,1.0,2.0
8932.0,603.0,16.0,3.0,5.0,high,3,0.0,2.0,0.0,1923.7999999523165,slow,0,1653298,1426,main_task,14.0,14.0,0.0,3.0
8932.0,604.0,16.0,4.0,5.0,high,4,0.0,0.0,1.0,147.60000002384186,fast,0,1654449,1428,main_task,14.0,17.0,1.0,4.0
8932.0,605.0,16.0,5.0,5.0,high,5,0.0,2.0,0.0,614.0999999046326,medium,0,1656068,1430,main_task,14.0,14.0,0.0,5.0
8932.0,606.0,16.0,6.0,5.0,high,5,0.0,2.0,0.0,85.29999995231628,fast,0,1657158,1432,main_task,14.0,14.0,0.0,6.0
8932.0,607.0,16.0,7.0,5.0,high,4,-1.0,0.0,0.0,,,0,1660165,1434,main_task,14.0,17.0,0.0,7.0
8932.0,608.0,16.0,8.0,5.0,high,2,0.0,0.0,1.0,314.39999997615814,fast,0,1661484,1436,main_task,14.0,14.0,2.0,8.0
8932.0,609.0,16.0,9.0,5.0,high,1,0.0,2.0,0.0,457.7000000476837,fast,0,1662948,1438,main_task,14.0,17.0,0.0,9.0
8932.0,610.0,16.0,10.0,5.0,high,3,0.0,2.0,0.0,368.3999999761581,fast,0,1664322,1440,main_task,14.0,14.0,0.0,10.0
8932.0,611.0,16.0,11.0,5.0,high,1,0.0,2.0,0.0,416.3999999761581,fast,0,1665742,1442,main_task,14.0,17.0,0.0,11.0
8932.0,612.0,16.0,12.0,5.0,high,4,0.0,0.0,1.0,256.0,fast,0,1667002,1444,main_task,14.0,17.0,1.0,12.0
8932.0,613.0,16.0,13.0,5.0,high,5,0.0,2.0,0.0,945.2999999523164,medium,0,1668953,1446,main_task,14.0,14.0,0.0,13.0
8932.0,614.0,16.0,14.0,5.0,high,3,0.0,2.0,0.0,1531.100000023842,slow,0,1671488,1448,main_task,14.0,14.0,0.0,14.0
8932.0,615.0,16.0,15.0,5.0,high,2,0.0,0.0,1.0,1778.899999976158,slow,0,1674272,1450,main_task,14.0,14.0,3.0,15.0
8932.0,616.0,16.0,16.0,5.0,high,4,0.0,0.0,1.0,1710.100000023842,slow,0,1676986,1452,main_task,14.0,17.0,2.0,16.0
8932.0,617.0,16.0,17.0,5.0,high,1,0.0,2.0,0.0,391.7999999523163,fast,0,1678383,1454,main_task,14.0,17.0,0.0,17.0
8932.0,618.0,16.0,18.0,5.0,high,5,0.0,2.0,0.0,264.5,fast,0,1679653,1456,main_task,14.0,14.0,0.0,18.0
8932.0,619.0,16.0,19.0,5.0,high,4,0.0,0.0,1.0,136.79999995231628,fast,0,1680793,1458,main_task,14.0,17.0,3.0,19.0
8932.0,620.0,16.0,20.0,5.0,high,3,-1.0,2.0,0.0,,,0,1683801,1460,main_task,14.0,14.0,0.0,20.0
8932.0,621.0,16.0,21.0,5.0,high,3,0.0,2.0,0.0,313.2000000476837,fast,0,1685118,1462,main_task,14.0,14.0,0.0,21.0
8932.0,622.0,16.0,22.0,5.0,high,5,0.0,2.0,0.0,67.20000004768372,fast,0,1686191,1464,main_task,14.0,14.0,0.0,22.0
8932.0,623.0,16.0,23.0,5.0,high,2,0.0,0.0,1.0,465.10000002384186,fast,0,1687661,1466,main_task,14.0,14.0,4.0,23.0
8932.0,624.0,16.0,24.0,5.0,high,2,0.0,0.0,1.0,1752.899999976158,slow,0,1690419,1468,main_task,14.0,14.0,5.0,24.0
8932.0,625.0,16.0,25.0,5.0,high,1,0.0,2.0,0.0,1681.5,slow,0,1693105,1470,main_task,14.0,17.0,0.0,25.0
8932.0,626.0,16.0,26.0,5.0,high,2,0.0,0.0,1.0,1239.899999976158,slow,0,1695350,1472,main_task,14.0,14.0,6.0,26.0
8932.0,627.0,16.0,27.0,5.0,high,1,0.0,2.0,0.0,148.09999990463257,fast,0,1696504,1474,main_task,14.0,17.0,0.0,27.0
8932.0,628.0,16.0,28.0,5.0,high,4,0.0,0.0,1.0,72.30000007152557,fast,0,1697582,1476,main_task,14.0,17.0,4.0,28.0
8932.0,629.0,16.0,29.0,5.0,high,2,0.0,0.0,1.0,165.29999995231628,fast,0,1698754,1478,main_task,14.0,14.0,7.0,29.0
8932.0,630.0,16.0,30.0,5.0,high,3,0.0,2.0,0.0,45.5,fast,0,1699804,1480,main_task,14.0,14.0,0.0,30.0
8932.0,631.0,16.0,31.0,5.0,high,5,0.0,2.0,0.0,587.0,medium,0,1701395,1482,main_task,14.0,14.0,0.0,31.0
8932.0,632.0,16.0,32.0,5.0,high,1,0.0,2.0,0.0,391.2999999523163,fast,0,1702791,1484,main_task,14.0,17.0,0.0,32.0
8932.0,633.0,16.0,33.0,5.0,high,3,0.0,2.0,0.0,527.7999999523163,medium,0,1704324,1486,main_task,14.0,14.0,0.0,33.0
8932.0,634.0,16.0,34.0,5.0,high,4,0.0,0.0,1.0,45.39999997615814,fast,0,1705374,1488,main_task,14.0,17.0,5.0,34.0
8932.0,635.0,16.0,35.0,5.0,high,5,0.0,2.0,0.0,1024.5,slow,0,1707404,1490,main_task,14.0,14.0,0.0,35.0
8932.0,636.0,16.0,36.0,5.0,high,2,0.0,0.0,1.0,7.900000095367432,fast,0,1708416,1492,main_task,14.0,14.0,8.0,36.0
8932.0,637.0,16.0,37.0,5.0,high,5,0.0,2.0,0.0,560.7999999523163,medium,0,1709983,1494,main_task,14.0,14.0,0.0,37.0
8932.0,638.0,16.0,38.0,5.0,high,3,0.0,2.0,0.0,46.70000004768372,fast,0,1711035,1496,main_task,14.0,14.0,0.0,38.0
8932.0,639.0,16.0,39.0,5.0,high,3,0.0,2.0,0.0,423.8999999761581,fast,0,1712464,1498,main_task,14.0,14.0,0.0,39.0
8932.0,640.0,16.0,40.0,5.0,high,1,0.0,2.0,0.0,479.60000002384186,fast,0,1713949,1500,main_task,14.0,17.0,0.0,40.0
8932.0,641.0,16.0,41.0,5.0,high,4,0.0,0.0,1.0,407.6999999284744,fast,0,1715361,1502,main_task,14.0,17.0,6.0,41.0
8932.0,642.0,16.0,42.0,5.0,high,1,0.0,2.0,0.0,357.7999999523163,fast,0,1716724,1504,main_task,14.0,17.0,0.0,42.0
8932.0,643.0,16.0,43.0,5.0,high,5,0.0,2.0,0.0,535.6000000238419,medium,0,1718265,1506,main_task,14.0,14.0,0.0,43.0
8932.0,644.0,16.0,44.0,5.0,high,4,0.0,0.0,1.0,118.5,fast,0,1719388,1508,main_task,14.0,17.0,7.0,44.0
8932.0,645.0,16.0,45.0,5.0,high,2,0.0,0.0,1.0,1.5,fast,0,1720394,1510,main_task,14.0,14.0,9.0,45.0
8932.0,646.0,16.0,46.0,5.0,high,2,-1.0,0.0,0.0,,,0,1723401,1512,main_task,14.0,14.0,0.0,46.0
8932.0,647.0,16.0,47.0,5.0,high,5,0.0,2.0,0.0,589.0,medium,0,1724994,1514,main_task,14.0,14.0,0.0,47.0
8932.0,648.0,16.0,48.0,5.0,high,3,0.0,2.0,0.0,1739.0,slow,0,1727739,1516,main_task,14.0,14.0,0.0,48.0
8932.0,649.0,16.0,49.0,5.0,high,4,0.0,0.0,1.0,443.2000000476837,fast,0,1729187,1518,main_task,14.0,17.0,8.0,49.0
8932.0,650.0,16.0,50.0,5.0,high,1,0.0,2.0,0.0,357.39999997615814,fast,0,1730549,1520,main_task,14.0,17.0,0.0,50.0
8932.0,651.0,16.0,51.0,5.0,high,2,0.0,0.0,1.0,1791.0,slow,0,1733344,1522,main_task,14.0,14.0,1.0,51.0
8932.0,652.0,16.0,52.0,5.0,high,1,0.0,2.0,0.0,725.5999999046326,medium,0,1735075,1524,main_task,14.0,17.0,0.0,52.0
8932.0,653.0,16.0,53.0,5.0,high,5,0.0,2.0,0.0,345.59999990463257,fast,0,1736426,1526,main_task,14.0,14.0,0.0,53.0
8932.0,654.0,16.0,54.0,5.0,high,4,0.0,0.0,1.0,200.60000002384183,fast,0,1737630,1528,main_task,14.0,17.0,9.0,54.0
8932.0,655.0,16.0,55.0,5.0,high,3,0.0,2.0,0.0,519.1000000238419,medium,0,1739155,1530,main_task,14.0,14.0,0.0,55.0
8932.0,656.0,16.0,56.0,5.0,high,5,0.0,2.0,0.0,140.39999997615814,fast,0,1740300,1532,main_task,14.0,14.0,0.0,56.0
8932.0,657.0,16.0,57.0,5.0,high,2,0.0,0.0,1.0,133.40000009536743,fast,0,1741438,1534,main_task,14.0,14.0,2.0,57.0
8932.0,658.0,16.0,58.0,5.0,high,4,0.0,0.0,1.0,99.10000002384186,fast,0,1742541,1536,main_task,14.0,17.0,10.0,58.0
8932.0,659.0,16.0,59.0,5.0,high,1,0.0,2.0,0.0,134.29999995231628,fast,0,1743681,1538,main_task,14.0,17.0,0.0,59.0
8932.0,660.0,16.0,60.0,5.0,high,1,0.0,2.0,0.0,524.0,medium,0,1745210,1540,main_task,14.0,17.0,0.0,60.0
8932.0,661.0,16.0,61.0,5.0,high,2,0.0,0.0,1.0,29.20000004768372,fast,0,1746245,1542,main_task,14.0,14.0,3.0,61.0
8932.0,662.0,16.0,62.0,5.0,high,3,0.0,2.0,0.0,175.0,fast,0,1747424,1544,main_task,14.0,14.0,0.0,62.0
8932.0,663.0,16.0,63.0,5.0,high,3,0.0,2.0,0.0,148.5,fast,0,1748577,1546,main_task,14.0,14.0,0.0,63.0
8932.0,664.0,16.0,64.0,5.0,high,5,0.0,2.0,0.0,614.5,medium,0,1750196,1548,main_task,14.0,14.0,0.0,64.0
8932.0,665.0,16.0,65.0,5.0,high,3,0.0,2.0,0.0,50.699999928474426,fast,0,1751252,1550,main_task,14.0,14.0,0.0,65.0
8932.0,666.0,16.0,66.0,5.0,high,4,0.0,0.0,1.0,104.69999992847444,fast,0,1752362,1552,main_task,14.0,17.0,11.0,66.0
8932.0,667.0,16.0,67.0,5.0,high,5,0.0,2.0,0.0,73.29999995231628,fast,0,1753440,1554,main_task,14.0,14.0,0.0,67.0
8932.0,668.0,16.0,68.0,5.0,high,4,0.0,0.0,1.0,113.19999992847444,fast,0,1754558,1556,main_task,14.0,17.0,12.0,68.0
8932.0,669.0,16.0,69.0,5.0,high,1,0.0,2.0,0.0,155.80000007152557,fast,0,1755719,1558,main_task,14.0,17.0,0.0,69.0
8932.0,670.0,16.0,70.0,5.0,high,2,0.0,0.0,1.0,453.1999999284744,fast,0,1757176,1560,main_task,14.0,14.0,4.0,70.0
8932.0,671.0,16.0,71.0,5.0,high,2,0.0,0.0,1.0,54.20000004768372,fast,0,1758236,1562,main_task,14.0,14.0,5.0,71.0
8932.0,672.0,16.0,72.0,5.0,high,4,0.0,0.0,1.0,308.89999997615814,fast,0,1759550,1564,main_task,14.0,17.0,13.0,72.0
8932.0,673.0,16.0,73.0,5.0,high,5,0.0,2.0,0.0,423.0,fast,0,1760978,1566,main_task,14.0,14.0,0.0,73.0
8932.0,674.0,16.0,74.0,5.0,high,3,0.0,2.0,0.0,300.2999999523163,fast,0,1762283,1568,main_task,14.0,14.0,0.0,74.0
8932.0,675.0,16.0,75.0,5.0,high,4,0.0,0.0,1.0,169.5,fast,0,1763457,1570,main_task,14.0,17.0,14.0,75.0
8932.0,676.0,17.0,1.0,3.0,low,1,-1.0,0.0,0.0,,,0,1773209,1574,main_task,19.0,17.0,0.0,1.0
8932.0,677.0,17.0,2.0,3.0,low,2,1.0,1.0,1.0,114.79999995231628,fast,0,1774328,1576,main_task,19.0,14.0,1.0,2.0
8932.0,678.0,17.0,3.0,3.0,low,3,1.0,2.0,0.0,216.79999995231628,fast,0,1775551,1578,main_task,19.0,15.0,0.0,3.0
8932.0,679.0,17.0,4.0,3.0,low,2,1.0,1.0,1.0,225.5,fast,0,1776782,1580,main_task,19.0,14.0,2.0,4.0
8932.0,680.0,17.0,5.0,3.0,low,1,1.0,0.0,0.0,102.5,fast,0,1777890,1582,main_task,19.0,17.0,0.0,5.0
8932.0,681.0,17.0,6.0,3.0,low,3,1.0,2.0,0.0,414.5,fast,0,1779310,1584,main_task,19.0,15.0,0.0,6.0
8932.0,682.0,17.0,7.0,3.0,low,3,1.0,2.0,0.0,165.20000004768372,fast,0,1780480,1586,main_task,19.0,15.0,0.0,7.0
8932.0,683.0,17.0,8.0,3.0,low,1,1.0,0.0,0.0,337.7999999523163,fast,0,1781824,1588,main_task,19.0,17.0,0.0,8.0
8932.0,684.0,17.0,9.0,3.0,low,2,1.0,1.0,1.0,544.0,medium,0,1783373,1590,main_task,19.0,14.0,3.0,9.0
8932.0,685.0,17.0,10.0,3.0,low,1,1.0,0.0,0.0,891.2000000476837,medium,0,1785269,1592,main_task,19.0,17.0,0.0,10.0
8932.0,686.0,17.0,11.0,3.0,low,3,1.0,2.0,0.0,0.6999999284744263,fast,0,1786275,1594,main_task,19.0,15.0,0.0,11.0
8932.0,687.0,17.0,12.0,3.0,low,3,-1.0,2.0,0.0,,,0,1789280,1596,main_task,19.0,15.0,0.0,12.0
8932.0,688.0,17.0,13.0,3.0,low,2,1.0,1.0,1.0,173.79999995231628,fast,0,1790459,1598,main_task,19.0,14.0,4.0,13.0
8932.0,689.0,17.0,14.0,3.0,low,2,1.0,1.0,1.0,307.0,fast,0,1791770,1600,main_task,19.0,14.0,5.0,14.0
8932.0,690.0,17.0,15.0,3.0,low,1,1.0,0.0,0.0,569.2000000476837,medium,0,1793345,1602,main_task,19.0,17.0,0.0,15.0
8932.0,691.0,17.0,16.0,3.0,low,2,1.0,1.0,1.0,325.8000000715256,fast,0,1794676,1604,main_task,19.0,14.0,6.0,16.0
8932.0,692.0,17.0,17.0,3.0,low,3,1.0,2.0,0.0,260.0,fast,0,1795941,1606,main_task,19.0,15.0,0.0,17.0
8932.0,693.0,17.0,18.0,3.0,low,1,1.0,0.0,0.0,1326.6999999284744,slow,0,1798272,1608,main_task,19.0,17.0,0.0,18.0
8932.0,694.0,17.0,19.0,3.0,low,1,1.0,0.0,0.0,8.699999928474426,fast,0,1799286,1610,main_task,19.0,17.0,0.0,19.0
8932.0,695.0,17.0,20.0,3.0,low,3,1.0,2.0,0.0,85.80000007152557,fast,0,1800377,1612,main_task,19.0,15.0,0.0,20.0
8932.0,696.0,17.0,21.0,3.0,low,2,-1.0,1.0,0.0,,,0,1803383,1614,main_task,19.0,14.0,0.0,21.0
8932.0,697.0,17.0,22.0,3.0,low,3,1.0,2.0,0.0,402.3999999761581,fast,0,1804789,1616,main_task,19.0,15.0,0.0,22.0
8932.0,698.0,17.0,23.0,3.0,low,1,1.0,0.0,0.0,466.5,fast,0,1806260,1618,main_task,19.0,17.0,0.0,23.0
8932.0,699.0,17.0,24.0,3.0,low,2,-1.0,1.0,0.0,,,0,1809266,1620,main_task,19.0,14.0,0.0,24.0
8932.0,700.0,17.0,25.0,3.0,low,1,1.0,0.0,0.0,927.899999976158,medium,0,1811199,1622,main_task,19.0,17.0,0.0,25.0
8932.0,701.0,17.0,26.0,3.0,low,3,1.0,2.0,0.0,417.8999999761581,fast,0,1812622,1624,main_task,19.0,15.0,0.0,26.0
8932.0,702.0,17.0,27.0,3.0,low,3,1.0,2.0,0.0,330.60000002384186,fast,0,1813957,1626,main_task,19.0,15.0,0.0,27.0
8932.0,703.0,17.0,28.0,3.0,low,2,1.0,1.0,1.0,142.29999995231628,fast,0,1815104,1628,main_task,19.0,14.0,1.0,28.0
8932.0,704.0,17.0,29.0,3.0,low,2,1.0,1.0,1.0,464.3999999761581,fast,0,1816574,1630,main_task,19.0,14.0,2.0,29.0
8932.0,705.0,17.0,30.0,3.0,low,1,1.0,0.0,0.0,711.7000000476837,medium,0,1818292,1632,main_task,19.0,17.0,0.0,30.0
8932.0,706.0,17.0,31.0,3.0,low,2,1.0,1.0,1.0,207.79999995231628,fast,0,1819506,1634,main_task,19.0,14.0,3.0,31.0
8932.0,707.0,17.0,32.0,3.0,low,3,1.0,2.0,0.0,460.3999999761581,fast,0,1820972,1636,main_task,19.0,15.0,0.0,32.0
8932.0,708.0,17.0,33.0,3.0,low,1,1.0,0.0,0.0,103.20000004768372,fast,0,1822080,1638,main_task,19.0,17.0,0.0,33.0
8932.0,709.0,17.0,34.0,3.0,low,1,1.0,0.0,0.0,278.1999999284744,fast,0,1823363,1640,main_task,19.0,17.0,0.0,34.0
8932.0,710.0,17.0,35.0,3.0,low,3,1.0,2.0,0.0,65.79999995231628,fast,0,1824433,1642,main_task,19.0,15.0,0.0,35.0
8932.0,711.0,17.0,36.0,3.0,low,2,1.0,1.0,1.0,104.39999997615814,fast,0,1825542,1644,main_task,19.0,14.0,4.0,36.0
8932.0,712.0,17.0,37.0,3.0,low,3,1.0,2.0,0.0,520.6999999284744,medium,0,1827067,1646,main_task,19.0,15.0,0.0,37.0
8932.0,713.0,17.0,38.0,3.0,low,1,1.0,0.0,0.0,140.20000004768372,fast,0,1828211,1648,main_task,19.0,17.0,0.0,38.0
8932.0,714.0,17.0,39.0,3.0,low,2,1.0,1.0,1.0,660.1000000238419,medium,0,1829876,1650,main_task,19.0,14.0,5.0,39.0
8932.0,715.0,17.0,40.0,3.0,low,1,1.0,0.0,0.0,145.60000002384186,fast,0,1831026,1652,main_task,19.0,17.0,0.0,40.0
8932.0,716.0,17.0,41.0,3.0,low,3,1.0,2.0,0.0,519.8999999761581,medium,0,1832551,1654,main_task,19.0,15.0,0.0,41.0
8932.0,717.0,17.0,42.0,3.0,low,3,1.0,2.0,0.0,104.39999997615814,fast,0,1833660,1656,main_task,19.0,15.0,0.0,42.0
8932.0,718.0,17.0,43.0,3.0,low,2,1.0,1.0,1.0,404.7999999523163,fast,0,1835070,1658,main_task,19.0,14.0,6.0,43.0
8932.0,719.0,17.0,44.0,3.0,low,2,1.0,1.0,1.0,171.80000007152557,fast,0,1836246,1660,main_task,19.0,14.0,7.0,44.0
8932.0,720.0,17.0,45.0,3.0,low,1,1.0,0.0,0.0,66.89999997615814,fast,0,1837318,1662,main_task,19.0,17.0,0.0,45.0
8944.0,1.0,3.0,1.0,2.0,low,1,0.0,1.0,0.0,827.6999999880791,medium,0,1426596,202,main_task,12.0,16.0,0.0,1.0
8944.0,2.0,3.0,2.0,2.0,low,2,1.0,2.0,0.0,399.5,fast,0,1428011,204,main_task,12.0,17.0,0.0,2.0
8944.0,3.0,3.0,3.0,2.0,low,1,0.0,1.0,0.0,258.59999999403954,fast,0,1429291,206,main_task,12.0,16.0,0.0,3.0
8944.0,4.0,3.0,4.0,2.0,low,2,1.0,2.0,0.0,274.19999998807907,fast,0,1430579,208,main_task,12.0,17.0,0.0,4.0
8944.0,5.0,3.0,5.0,2.0,low,2,2.0,2.0,1.0,300.10000002384186,fast,0,1431897,210,main_task,12.0,17.0,1.0,5.0
8944.0,6.0,3.0,6.0,2.0,low,1,0.0,1.0,0.0,612.6000000238419,medium,0,1433542,212,main_task,12.0,16.0,0.0,6.0
8944.0,7.0,3.0,7.0,2.0,low,1,1.0,1.0,1.0,671.8999999761581,medium,0,1435242,214,main_task,12.0,16.0,1.0,7.0
8944.0,8.0,3.0,8.0,2.0,low,2,2.0,2.0,1.0,425.7999999821186,fast,0,1436690,216,main_task,12.0,17.0,2.0,8.0
8944.0,9.0,3.0,9.0,2.0,low,2,1.0,2.0,0.0,442.09999999403954,fast,0,1438144,218,main_task,12.0,17.0,0.0,9.0
8944.0,10.0,3.0,10.0,2.0,low,1,2.0,1.0,0.0,270.7000000178814,fast,0,1439419,220,main_task,12.0,16.0,0.0,10.0
8944.0,11.0,3.0,11.0,2.0,low,2,1.0,2.0,0.0,381.5,fast,0,1440822,222,main_task,12.0,17.0,0.0,11.0
8944.0,12.0,3.0,12.0,2.0,low,1,1.0,1.0,1.0,649.9000000059605,medium,0,1442494,224,main_task,12.0,16.0,1.0,12.0
8944.0,13.0,3.0,13.0,2.0,low,1,1.0,1.0,1.0,470.90000000596046,fast,0,1443992,226,main_task,12.0,16.0,2.0,13.0
8944.0,14.0,3.0,14.0,2.0,low,2,1.0,2.0,0.0,398.90000000596046,fast,0,1445413,228,main_task,12.0,17.0,0.0,14.0
8944.0,15.0,3.0,15.0,2.0,low,1,1.0,1.0,1.0,484.7000000178814,fast,0,1446923,230,main_task,12.0,16.0,3.0,15.0
8944.0,16.0,3.0,16.0,2.0,low,2,2.0,2.0,1.0,470.7999999821186,fast,0,1448412,232,main_task,12.0,17.0,1.0,16.0
8944.0,17.0,3.0,17.0,2.0,low,2,1.0,2.0,0.0,413.8000000119209,fast,0,1449832,234,main_task,12.0,17.0,0.0,17.0
8944.0,18.0,3.0,18.0,2.0,low,1,2.0,1.0,0.0,477.2000000178814,fast,0,1451329,236,main_task,12.0,16.0,0.0,18.0
8944.0,19.0,3.0,19.0,2.0,low,1,0.0,1.0,0.0,325.80000001192093,fast,0,1452679,238,main_task,12.0,16.0,0.0,19.0
8944.0,20.0,3.0,20.0,2.0,low,2,1.0,2.0,0.0,257.7999999821186,fast,0,1453957,240,main_task,12.0,17.0,0.0,20.0
8944.0,21.0,3.0,21.0,2.0,low,1,0.0,1.0,0.0,395.40000000596046,fast,0,1455381,242,main_task,12.0,16.0,0.0,21.0
8944.0,22.0,3.0,22.0,2.0,low,1,2.0,1.0,0.0,296.0,fast,0,1456705,244,main_task,12.0,16.0,0.0,22.0
8944.0,23.0,3.0,23.0,2.0,low,2,1.0,2.0,0.0,128.09999999403954,fast,0,1457848,246,main_task,12.0,17.0,0.0,23.0
8944.0,24.0,3.0,24.0,2.0,low,2,1.0,2.0,0.0,965.399999976158,medium,0,1459824,248,main_task,12.0,17.0,0.0,24.0
8944.0,25.0,3.0,25.0,2.0,low,1,2.0,1.0,0.0,322.59999999403954,fast,0,1461163,250,main_task,12.0,16.0,0.0,25.0
8944.0,26.0,3.0,26.0,2.0,low,2,0.0,2.0,0.0,485.8999999761581,fast,0,1462662,252,main_task,12.0,17.0,0.0,26.0
8944.0,27.0,3.0,27.0,2.0,low,1,0.0,1.0,0.0,254.4000000059605,fast,0,1463944,254,main_task,12.0,16.0,0.0,27.0
8944.0,28.0,3.0,28.0,2.0,low,1,1.0,1.0,1.0,84.80000001192093,fast,0,1465059,256,main_task,12.0,16.0,1.0,28.0
8944.0,29.0,3.0,29.0,2.0,low,2,1.0,2.0,0.0,235.5999999940396,fast,0,1466304,258,main_task,12.0,17.0,0.0,29.0
8944.0,30.0,3.0,30.0,2.0,low,2,0.0,2.0,0.0,529.6999999880791,medium,0,1467845,260,main_task,12.0,17.0,0.0,30.0
8944.0,31.0,4.0,1.0,5.0,high,1,0.0,1.0,0.0,602.9000000059605,medium,0,1494745,264,main_task,14.0,17.0,0.0,1.0
8944.0,32.0,4.0,2.0,5.0,high,2,0.0,0.0,1.0,764.5,medium,0,1496536,266,main_task,14.0,13.0,1.0,2.0
8944.0,33.0,4.0,3.0,5.0,high,3,2.0,1.0,0.0,939.5999999940396,medium,0,1498502,268,main_task,14.0,14.0,0.0,3.0
8944.0,34.0,4.0,4.0,5.0,high,4,2.0,2.0,1.0,1019.5999999940396,slow,0,1500532,270,main_task,14.0,13.0,1.0,4.0
8944.0,35.0,4.0,5.0,5.0,high,5,1.0,1.0,1.0,880.0999999940395,medium,0,1502423,272,main_task,14.0,13.0,1.0,5.0
8944.0,36.0,4.0,6.0,5.0,high,2,0.0,0.0,1.0,823.5,medium,0,1504261,274,main_task,14.0,13.0,2.0,6.0
8944.0,37.0,4.0,7.0,5.0,high,4,1.0,2.0,0.0,569.5,medium,0,1505844,276,main_task,14.0,13.0,0.0,7.0
8944.0,38.0,4.0,8.0,5.0,high,1,1.0,1.0,1.0,667.4000000059605,medium,0,1507539,278,main_task,14.0,17.0,1.0,8.0
8944.0,39.0,4.0,9.0,5.0,high,3,2.0,1.0,0.0,768.3000000119209,medium,0,1509328,280,main_task,14.0,14.0,0.0,9.0
8944.0,40.0,4.0,10.0,5.0,high,5,2.0,1.0,0.0,725.0999999940395,medium,0,1511067,282,main_task,14.0,13.0,0.0,10.0
8944.0,41.0,4.0,11.0,5.0,high,3,1.0,1.0,1.0,436.0,fast,0,1512527,284,main_task,14.0,14.0,1.0,11.0
8944.0,42.0,4.0,12.0,5.0,high,3,0.0,1.0,0.0,432.90000000596046,fast,0,1513974,286,main_task,14.0,14.0,0.0,12.0
8944.0,43.0,4.0,13.0,5.0,high,1,1.0,1.0,1.0,270.40000000596046,fast,0,1515256,288,main_task,14.0,17.0,2.0,13.0
8944.0,44.0,4.0,14.0,5.0,high,2,1.0,0.0,0.0,323.30000001192093,fast,0,1516593,290,main_task,14.0,13.0,0.0,14.0
8944.0,45.0,4.0,15.0,5.0,high,4,1.0,2.0,0.0,774.5,medium,0,1518379,292,main_task,14.0,13.0,0.0,15.0
8944.0,46.0,4.0,16.0,5.0,high,5,2.0,1.0,0.0,1126.899999976158,slow,0,1520524,294,main_task,14.0,13.0,0.0,16.0
8944.0,47.0,4.0,17.0,5.0,high,1,1.0,1.0,1.0,947.0999999940396,medium,0,1522506,296,main_task,14.0,17.0,3.0,17.0
8944.0,48.0,4.0,18.0,5.0,high,4,2.0,2.0,1.0,1351.5,slow,0,1524873,298,main_task,14.0,13.0,1.0,18.0
8944.0,49.0,4.0,19.0,5.0,high,4,2.0,2.0,1.0,627.3000000119209,medium,0,1526522,300,main_task,14.0,13.0,2.0,19.0
8944.0,50.0,4.0,20.0,5.0,high,5,1.0,1.0,1.0,888.5,medium,0,1528431,302,main_task,14.0,13.0,1.0,20.0
8944.0,51.0,4.0,21.0,5.0,high,3,0.0,1.0,0.0,923.6999999880792,medium,0,1530374,304,main_task,14.0,14.0,0.0,21.0
8944.0,52.0,4.0,22.0,5.0,high,2,0.0,0.0,1.0,779.0999999940395,medium,0,1532177,306,main_task,14.0,13.0,1.0,22.0
8944.0,53.0,4.0,23.0,5.0,high,3,1.0,1.0,1.0,748.6000000238419,medium,0,1533944,308,main_task,14.0,14.0,1.0,23.0
8944.0,54.0,4.0,24.0,5.0,high,1,1.0,1.0,1.0,1038.300000011921,slow,0,1536009,310,main_task,14.0,17.0,4.0,24.0
8944.0,55.0,4.0,25.0,5.0,high,5,1.0,1.0,1.0,1065.5,slow,0,1538084,312,main_task,14.0,13.0,2.0,25.0
8944.0,56.0,4.0,26.0,5.0,high,5,1.0,1.0,1.0,567.1999999880791,medium,0,1539662,314,main_task,14.0,13.0,3.0,26.0
8944.0,57.0,4.0,27.0,5.0,high,2,0.0,0.0,1.0,907.0,medium,0,1541593,316,main_task,14.0,13.0,2.0,27.0
8944.0,58.0,4.0,28.0,5.0,high,4,1.0,2.0,0.0,722.7999999821186,medium,0,1543342,318,main_task,14.0,13.0,0.0,28.0
8944.0,59.0,4.0,29.0,5.0,high,2,0.0,0.0,1.0,601.9000000059605,medium,0,1544961,320,main_task,14.0,13.0,3.0,29.0
8944.0,60.0,4.0,30.0,5.0,high,1,1.0,1.0,1.0,821.4000000059605,medium,0,1546793,322,main_task,14.0,17.0,5.0,30.0
8944.0,61.0,4.0,31.0,5.0,high,4,1.0,2.0,0.0,678.7999999821186,medium,0,1548489,324,main_task,14.0,13.0,0.0,31.0
8944.0,62.0,4.0,32.0,5.0,high,3,1.0,1.0,1.0,801.9000000059605,medium,0,1550310,326,main_task,14.0,14.0,2.0,32.0
8944.0,63.0,4.0,33.0,5.0,high,5,1.0,1.0,1.0,670.3000000119209,medium,0,1552006,328,main_task,14.0,13.0,4.0,33.0
8944.0,64.0,4.0,34.0,5.0,high,1,2.0,1.0,0.0,1003.5999999940396,slow,0,1554028,330,main_task,14.0,17.0,0.0,34.0
8944.0,65.0,4.0,35.0,5.0,high,2,0.0,0.0,1.0,727.6999999880791,medium,0,1555790,332,main_task,14.0,13.0,4.0,35.0
8944.0,66.0,4.0,36.0,5.0,high,2,0.0,0.0,1.0,493.09999999403954,fast,0,1557308,334,main_task,14.0,13.0,5.0,36.0
8944.0,67.0,4.0,37.0,5.0,high,1,2.0,1.0,0.0,1014.5999999940396,slow,0,1559346,336,main_task,14.0,17.0,0.0,37.0
8944.0,68.0,4.0,38.0,5.0,high,4,1.0,2.0,0.0,594.0999999940395,medium,0,1560964,338,main_task,14.0,13.0,0.0,38.0
8944.0,69.0,4.0,39.0,5.0,high,1,0.0,1.0,0.0,455.0,fast,0,1562447,340,main_task,14.0,17.0,0.0,39.0
8944.0,70.0,4.0,40.0,5.0,high,3,1.0,1.0,1.0,476.90000000596046,fast,0,1563946,342,main_task,14.0,14.0,3.0,40.0
8944.0,71.0,4.0,41.0,5.0,high,5,1.0,1.0,1.0,607.7000000178814,medium,0,1565576,344,main_task,14.0,13.0,5.0,41.0
8944.0,72.0,4.0,42.0,5.0,high,2,0.0,0.0,1.0,993.4000000059604,medium,0,1567582,346,main_task,14.0,13.0,6.0,42.0
8944.0,73.0,4.0,43.0,5.0,high,3,1.0,1.0,1.0,538.3000000119209,medium,0,1569140,348,main_task,14.0,14.0,4.0,43.0
8944.0,74.0,4.0,44.0,5.0,high,1,1.0,1.0,1.0,714.4000000059605,medium,0,1570876,350,main_task,14.0,17.0,1.0,44.0
8944.0,75.0,4.0,45.0,5.0,high,4,1.0,2.0,0.0,790.0999999940395,medium,0,1572678,352,main_task,14.0,13.0,0.0,45.0
8944.0,76.0,4.0,46.0,5.0,high,4,2.0,2.0,1.0,477.5,fast,0,1574163,354,main_task,14.0,13.0,1.0,46.0
8944.0,77.0,4.0,47.0,5.0,high,3,1.0,1.0,1.0,777.8000000119209,medium,0,1575959,356,main_task,14.0,14.0,5.0,47.0
8944.0,78.0,4.0,48.0,5.0,high,5,1.0,1.0,1.0,664.1999999880791,medium,0,1577631,358,main_task,14.0,13.0,6.0,48.0
8944.0,79.0,4.0,49.0,5.0,high,3,2.0,1.0,0.0,921.3000000119208,medium,0,1579565,360,main_task,14.0,14.0,0.0,49.0
8944.0,80.0,4.0,50.0,5.0,high,2,0.0,0.0,1.0,637.6000000238419,medium,0,1581232,362,main_task,14.0,13.0,7.0,50.0
8944.0,81.0,4.0,51.0,5.0,high,5,1.0,1.0,1.0,723.9000000059605,medium,0,1582975,364,main_task,14.0,13.0,7.0,51.0
8944.0,82.0,4.0,52.0,5.0,high,4,2.0,2.0,1.0,1031.0,slow,0,1585023,366,main_task,14.0,13.0,2.0,52.0
8944.0,83.0,4.0,53.0,5.0,high,1,2.0,1.0,0.0,1126.800000011921,slow,0,1587162,368,main_task,14.0,17.0,0.0,53.0
8944.0,84.0,4.0,54.0,5.0,high,2,0.0,0.0,1.0,843.6000000238419,medium,0,1589031,370,main_task,14.0,13.0,8.0,54.0
8944.0,85.0,4.0,55.0,5.0,high,2,0.0,0.0,1.0,644.0,medium,0,1590695,372,main_task,14.0,13.0,9.0,55.0
8944.0,86.0,4.0,56.0,5.0,high,5,1.0,1.0,1.0,727.6999999880791,medium,0,1592447,374,main_task,14.0,13.0,8.0,56.0
8944.0,87.0,4.0,57.0,5.0,high,3,2.0,1.0,0.0,1038.7999999821186,slow,0,1594509,376,main_task,14.0,14.0,0.0,57.0
8944.0,88.0,4.0,58.0,5.0,high,5,1.0,1.0,1.0,933.3000000119208,medium,0,1596458,378,main_task,14.0,13.0,9.0,58.0
8944.0,89.0,4.0,59.0,5.0,high,4,2.0,2.0,1.0,860.3000000119209,medium,0,1598329,380,main_task,14.0,13.0,3.0,59.0
8944.0,90.0,4.0,60.0,5.0,high,3,1.0,1.0,1.0,752.2000000178814,medium,0,1600109,382,main_task,14.0,14.0,1.0,60.0
8944.0,91.0,4.0,61.0,5.0,high,2,0.0,0.0,1.0,635.4000000059605,medium,0,1601763,384,main_task,14.0,13.0,10.0,61.0
8944.0,92.0,4.0,62.0,5.0,high,1,0.0,1.0,0.0,816.5,medium,0,1603589,386,main_task,14.0,17.0,0.0,62.0
8944.0,93.0,4.0,63.0,5.0,high,5,1.0,1.0,1.0,712.0,medium,0,1605313,388,main_task,14.0,13.0,10.0,63.0
8944.0,94.0,4.0,64.0,5.0,high,1,1.0,1.0,1.0,757.9000000059605,medium,0,1607098,390,main_task,14.0,17.0,1.0,64.0
8944.0,95.0,4.0,65.0,5.0,high,1,1.0,1.0,1.0,530.0,medium,0,1608652,392,main_task,14.0,17.0,2.0,65.0
8944.0,96.0,4.0,66.0,5.0,high,4,2.0,2.0,1.0,831.1999999880791,medium,0,1610501,394,main_task,14.0,13.0,4.0,66.0
8944.0,97.0,4.0,67.0,5.0,high,5,1.0,1.0,1.0,644.8999999761581,medium,0,1612163,396,main_task,14.0,13.0,11.0,67.0
8944.0,98.0,4.0,68.0,5.0,high,4,2.0,2.0,1.0,534.5999999940395,medium,0,1613719,398,main_task,14.0,13.0,5.0,68.0
8944.0,99.0,4.0,69.0,5.0,high,3,1.0,1.0,1.0,403.8000000119209,fast,0,1615138,400,main_task,14.0,14.0,2.0,69.0
8944.0,100.0,4.0,70.0,5.0,high,2,0.0,0.0,1.0,613.7999999821186,medium,0,1616775,402,main_task,14.0,13.0,11.0,70.0
8944.0,101.0,4.0,71.0,5.0,high,5,2.0,1.0,0.0,813.0,medium,0,1618614,404,main_task,14.0,13.0,0.0,71.0
8944.0,102.0,4.0,72.0,5.0,high,3,1.0,1.0,1.0,548.6000000238419,medium,0,1620191,406,main_task,14.0,14.0,3.0,72.0
8944.0,103.0,4.0,73.0,5.0,high,4,1.0,2.0,0.0,454.3000000119209,fast,0,1621656,408,main_task,14.0,13.0,0.0,73.0
8944.0,104.0,4.0,74.0,5.0,high,1,1.0,1.0,1.0,608.6000000238419,medium,0,1623292,410,main_task,14.0,17.0,3.0,74.0
8944.0,105.0,4.0,75.0,5.0,high,1,1.0,1.0,1.0,555.9000000059605,medium,0,1624876,412,main_task,14.0,17.0,4.0,75.0
8944.0,106.0,5.0,1.0,6.0,high,1,0.0,0.0,1.0,397.09999999403954,fast,0,1641471,416,main_task,9.0,18.0,1.0,1.0
8944.0,107.0,5.0,2.0,6.0,high,2,1.0,1.0,1.0,595.3999999761581,medium,0,1643081,418,main_task,9.0,15.0,1.0,2.0
8944.0,108.0,5.0,3.0,6.0,high,3,2.0,0.0,0.0,458.2999999821186,fast,0,1644556,420,main_task,9.0,15.0,0.0,3.0
8944.0,109.0,5.0,4.0,6.0,high,4,1.0,0.0,0.0,481.90000000596046,fast,0,1646048,422,main_task,9.0,16.0,0.0,4.0
8944.0,110.0,5.0,5.0,6.0,high,5,2.0,2.0,1.0,295.69999998807907,fast,0,1647363,424,main_task,9.0,16.0,1.0,5.0
8944.0,111.0,5.0,6.0,6.0,high,6,2.0,2.0,1.0,948.0,medium,0,1649341,426,main_task,9.0,17.0,1.0,6.0
8944.0,112.0,5.0,7.0,6.0,high,4,2.0,0.0,0.0,798.4000000059605,medium,0,1651162,428,main_task,9.0,16.0,0.0,7.0
8944.0,113.0,5.0,8.0,6.0,high,1,0.0,0.0,1.0,721.4000000059605,medium,0,1652898,430,main_task,9.0,18.0,2.0,8.0
8944.0,114.0,5.0,9.0,6.0,high,5,0.0,2.0,0.0,629.7999999821186,medium,0,1654542,432,main_task,9.0,16.0,0.0,9.0
8944.0,115.0,5.0,10.0,6.0,high,2,2.0,1.0,0.0,511.6999999880791,medium,0,1656063,434,main_task,9.0,15.0,0.0,10.0
8944.0,116.0,5.0,11.0,6.0,high,6,1.0,2.0,0.0,366.5,fast,0,1657448,436,main_task,9.0,17.0,0.0,11.0
8944.0,117.0,5.0,12.0,6.0,high,3,2.0,0.0,0.0,66.30000001192093,fast,0,1658546,438,main_task,9.0,15.0,0.0,12.0
8944.0,118.0,5.0,13.0,6.0,high,6,1.0,2.0,0.0,418.5,fast,0,1659992,440,main_task,9.0,17.0,0.0,13.0
8944.0,119.0,5.0,14.0,6.0,high,1,0.0,0.0,1.0,266.10000002384186,fast,0,1661277,442,main_task,9.0,18.0,3.0,14.0
8944.0,120.0,5.0,15.0,6.0,high,5,0.0,2.0,0.0,561.8000000119209,medium,0,1662865,444,main_task,9.0,16.0,0.0,15.0
8944.0,121.0,5.0,16.0,6.0,high,3,0.0,0.0,1.0,522.9000000059605,medium,0,1664410,446,main_task,9.0,15.0,1.0,16.0
8944.0,122.0,5.0,17.0,6.0,high,4,1.0,0.0,0.0,815.5,medium,0,1666244,448,main_task,9.0,16.0,0.0,17.0
8944.0,123.0,5.0,18.0,6.0,high,4,0.0,0.0,1.0,379.09999999403954,fast,0,1667641,450,main_task,9.0,16.0,1.0,18.0
8944.0,124.0,5.0,19.0,6.0,high,2,0.0,1.0,0.0,438.90000000596046,fast,0,1669096,452,main_task,9.0,15.0,0.0,19.0
8944.0,125.0,5.0,20.0,6.0,high,6,0.0,2.0,0.0,835.4000000059605,medium,0,1670962,454,main_task,9.0,17.0,0.0,20.0
8944.0,126.0,5.0,21.0,6.0,high,2,1.0,1.0,1.0,37.0,fast,0,1672022,456,main_task,9.0,15.0,1.0,21.0
8944.0,127.0,5.0,22.0,6.0,high,1,0.0,0.0,1.0,648.9000000059605,medium,0,1673689,458,main_task,9.0,18.0,4.0,22.0
8944.0,128.0,5.0,23.0,6.0,high,3,2.0,0.0,0.0,800.3000000119209,medium,0,1675512,460,main_task,9.0,15.0,0.0,23.0
8944.0,129.0,5.0,24.0,6.0,high,2,0.0,1.0,0.0,603.7999999821186,medium,0,1677141,462,main_task,9.0,15.0,0.0,24.0
8944.0,130.0,5.0,25.0,6.0,high,5,1.0,2.0,0.0,334.7000000178814,fast,0,1678495,464,main_task,9.0,16.0,0.0,25.0
8944.0,131.0,5.0,26.0,6.0,high,5,0.0,2.0,0.0,330.80000001192093,fast,0,1679847,466,main_task,9.0,16.0,0.0,26.0
8944.0,132.0,5.0,27.0,6.0,high,1,0.0,0.0,1.0,695.9000000059605,medium,0,1681566,468,main_task,9.0,18.0,5.0,27.0
8944.0,133.0,5.0,28.0,6.0,high,3,0.0,0.0,1.0,829.0,medium,0,1683406,470,main_task,9.0,15.0,1.0,28.0
8944.0,134.0,5.0,29.0,6.0,high,4,0.0,0.0,1.0,580.4000000059605,medium,0,1685012,472,main_task,9.0,16.0,2.0,29.0
8944.0,135.0,5.0,30.0,6.0,high,6,2.0,2.0,1.0,920.6999999880792,medium,0,1686963,474,main_task,9.0,17.0,1.0,30.0
8944.0,136.0,5.0,31.0,6.0,high,4,0.0,0.0,1.0,528.3999999761581,medium,0,1688522,476,main_task,9.0,16.0,3.0,31.0
8944.0,137.0,5.0,32.0,6.0,high,3,2.0,0.0,0.0,682.2999999821186,medium,0,1690224,478,main_task,9.0,15.0,0.0,32.0
8944.0,138.0,5.0,33.0,6.0,high,1,0.0,0.0,1.0,588.2999999821186,medium,0,1691833,480,main_task,9.0,18.0,6.0,33.0
8944.0,139.0,5.0,34.0,6.0,high,5,2.0,2.0,1.0,847.0,medium,0,1693699,482,main_task,9.0,16.0,1.0,34.0
8944.0,140.0,5.0,35.0,6.0,high,2,0.0,1.0,0.0,588.0999999940395,medium,0,1695307,484,main_task,9.0,15.0,0.0,35.0
8944.0,141.0,5.0,36.0,6.0,high,6,2.0,2.0,1.0,741.2000000178814,medium,0,1697066,486,main_task,9.0,17.0,2.0,36.0
8944.0,142.0,5.0,37.0,6.0,high,5,2.0,2.0,1.0,692.6999999880791,medium,0,1698782,488,main_task,9.0,16.0,2.0,37.0
8944.0,143.0,5.0,38.0,6.0,high,2,2.0,1.0,0.0,610.5,medium,0,1700425,490,main_task,9.0,15.0,0.0,38.0
8944.0,144.0,5.0,39.0,6.0,high,4,0.0,0.0,1.0,594.0,medium,0,1702049,492,main_task,9.0,16.0,4.0,39.0
8944.0,145.0,5.0,40.0,6.0,high,1,0.0,0.0,1.0,552.9000000059605,medium,0,1703630,494,main_task,9.0,18.0,7.0,40.0
8944.0,146.0,5.0,41.0,6.0,high,3,0.0,0.0,1.0,802.2999999821186,medium,0,1705447,496,main_task,9.0,15.0,1.0,41.0
8944.0,147.0,5.0,42.0,6.0,high,3,0.0,0.0,1.0,548.9000000059605,medium,0,1707006,498,main_task,9.0,15.0,2.0,42.0
8944.0,148.0,5.0,43.0,6.0,high,6,0.0,2.0,0.0,604.2999999821186,medium,0,1708643,500,main_task,9.0,17.0,0.0,43.0
8944.0,149.0,5.0,44.0,6.0,high,6,0.0,2.0,0.0,485.3999999761581,fast,0,1710158,502,main_task,9.0,17.0,0.0,44.0
8944.0,150.0,5.0,45.0,6.0,high,1,0.0,0.0,1.0,519.6999999880791,medium,0,1711706,504,main_task,9.0,18.0,8.0,45.0
8944.0,151.0,5.0,46.0,6.0,high,5,0.0,2.0,0.0,876.0999999940395,medium,0,1713606,506,main_task,9.0,16.0,0.0,46.0
8944.0,152.0,5.0,47.0,6.0,high,1,1.0,0.0,0.0,432.6999999880791,fast,0,1715049,508,main_task,9.0,18.0,0.0,47.0
8944.0,153.0,5.0,48.0,6.0,high,2,0.0,1.0,0.0,415.59999999403954,fast,0,1716490,510,main_task,9.0,15.0,0.0,48.0
8944.0,154.0,5.0,49.0,6.0,high,4,0.0,0.0,1.0,506.0,medium,0,1718006,512,main_task,9.0,16.0,5.0,49.0
8944.0,155.0,5.0,50.0,6.0,high,5,0.0,2.0,0.0,707.0,medium,0,1719731,514,main_task,9.0,16.0,0.0,50.0
8944.0,156.0,5.0,51.0,6.0,high,4,1.0,0.0,0.0,298.60000002384186,fast,0,1721049,516,main_task,9.0,16.0,0.0,51.0
8944.0,157.0,5.0,52.0,6.0,high,6,1.0,2.0,0.0,650.3000000119209,medium,0,1722725,518,main_task,9.0,17.0,0.0,52.0
8944.0,158.0,5.0,53.0,6.0,high,3,2.0,0.0,0.0,193.3999999761581,fast,0,1723947,520,main_task,9.0,15.0,0.0,53.0
8944.0,159.0,5.0,54.0,6.0,high,2,0.0,1.0,0.0,728.8000000119209,medium,0,1725695,522,main_task,9.0,15.0,0.0,54.0
8944.0,160.0,5.0,55.0,6.0,high,2,1.0,1.0,1.0,286.2999999821186,fast,0,1727008,524,main_task,9.0,15.0,1.0,55.0
8944.0,161.0,5.0,56.0,6.0,high,4,0.0,0.0,1.0,754.0999999940395,medium,0,1728776,526,main_task,9.0,16.0,1.0,56.0
8944.0,162.0,5.0,57.0,6.0,high,3,2.0,0.0,0.0,1209.9000000059605,slow,0,1731010,528,main_task,9.0,15.0,0.0,57.0
8944.0,163.0,5.0,58.0,6.0,high,1,0.0,0.0,1.0,548.4000000059605,medium,0,1732581,530,main_task,9.0,18.0,1.0,58.0
8944.0,164.0,5.0,59.0,6.0,high,5,0.0,2.0,0.0,743.1999999880791,medium,0,1734350,532,main_task,9.0,16.0,0.0,59.0
8944.0,165.0,5.0,60.0,6.0,high,3,0.0,0.0,1.0,647.7999999821186,medium,0,1736022,534,main_task,9.0,15.0,1.0,60.0
8944.0,166.0,5.0,61.0,6.0,high,6,2.0,2.0,1.0,959.8000000119208,medium,0,1738004,536,main_task,9.0,17.0,1.0,61.0
8944.0,167.0,5.0,62.0,6.0,high,4,0.0,0.0,1.0,496.5,fast,0,1739514,538,main_task,9.0,16.0,2.0,62.0
8944.0,168.0,5.0,63.0,6.0,high,5,1.0,2.0,0.0,1037.5,slow,0,1741576,540,main_task,9.0,16.0,0.0,63.0
8944.0,169.0,5.0,64.0,6.0,high,6,0.0,2.0,0.0,480.7000000178814,fast,0,1743072,542,main_task,9.0,17.0,0.0,64.0
8944.0,170.0,5.0,65.0,6.0,high,2,2.0,1.0,0.0,436.0,fast,0,1744530,544,main_task,9.0,15.0,0.0,65.0
8944.0,171.0,5.0,66.0,6.0,high,1,1.0,0.0,0.0,268.59999999403954,fast,0,1745828,546,main_task,9.0,18.0,0.0,66.0
8944.0,172.0,5.0,67.0,6.0,high,4,0.0,0.0,1.0,482.0,fast,0,1747342,548,main_task,9.0,16.0,3.0,67.0
8944.0,173.0,5.0,68.0,6.0,high,1,0.0,0.0,1.0,415.5,fast,0,1748782,550,main_task,9.0,18.0,1.0,68.0
8944.0,174.0,5.0,69.0,6.0,high,1,0.0,0.0,1.0,343.19999998807907,fast,0,1750149,552,main_task,9.0,18.0,2.0,69.0
8944.0,175.0,5.0,70.0,6.0,high,5,0.0,2.0,0.0,341.90000000596046,fast,0,1751515,554,main_task,9.0,16.0,0.0,70.0
8944.0,176.0,5.0,71.0,6.0,high,3,2.0,0.0,0.0,363.09999999403954,fast,0,1752898,556,main_task,9.0,15.0,0.0,71.0
8944.0,177.0,5.0,72.0,6.0,high,6,0.0,2.0,0.0,480.3000000119209,fast,0,1754399,558,main_task,9.0,17.0,0.0,72.0
8944.0,178.0,5.0,73.0,6.0,high,6,1.0,2.0,0.0,773.0999999940395,medium,0,1756190,560,main_task,9.0,17.0,0.0,73.0
8944.0,179.0,5.0,74.0,6.0,high,2,1.0,1.0,1.0,436.1999999880791,fast,0,1757642,562,main_task,9.0,15.0,1.0,74.0
8944.0,180.0,5.0,75.0,6.0,high,3,1.0,0.0,0.0,474.1999999880791,fast,0,1759131,564,main_task,9.0,15.0,0.0,75.0
8944.0,181.0,5.0,76.0,6.0,high,2,1.0,1.0,1.0,805.8000000119209,medium,0,1760961,566,main_task,9.0,15.0,2.0,76.0
8944.0,182.0,5.0,77.0,6.0,high,4,0.0,0.0,1.0,590.4000000059605,medium,0,1762576,568,main_task,9.0,16.0,4.0,77.0
8944.0,183.0,5.0,78.0,6.0,high,5,1.0,2.0,0.0,573.4000000059605,medium,0,1764174,570,main_task,9.0,16.0,0.0,78.0
8944.0,184.0,5.0,79.0,6.0,high,6,0.0,2.0,0.0,417.2999999821186,fast,0,1765614,572,main_task,9.0,17.0,0.0,79.0
8944.0,185.0,5.0,80.0,6.0,high,1,0.0,0.0,1.0,595.9000000059605,medium,0,1767228,574,main_task,9.0,18.0,3.0,80.0
8944.0,186.0,5.0,81.0,6.0,high,2,2.0,1.0,0.0,938.1999999880792,medium,0,1769191,576,main_task,9.0,15.0,0.0,81.0
8944.0,187.0,5.0,82.0,6.0,high,3,2.0,0.0,0.0,475.5,fast,0,1770694,578,main_task,9.0,15.0,0.0,82.0
8944.0,188.0,5.0,83.0,6.0,high,4,0.0,0.0,1.0,570.0999999940395,medium,0,1772284,580,main_task,9.0,16.0,5.0,83.0
8944.0,189.0,5.0,84.0,6.0,high,2,0.0,1.0,0.0,422.6999999880791,fast,0,1773725,582,main_task,9.0,15.0,0.0,84.0
8944.0,190.0,5.0,85.0,6.0,high,5,1.0,2.0,0.0,299.2999999821186,fast,0,1775041,584,main_task,9.0,16.0,0.0,85.0
8944.0,191.0,5.0,86.0,6.0,high,3,0.0,0.0,1.0,360.09999999403954,fast,0,1776410,586,main_task,9.0,15.0,1.0,86.0
8944.0,192.0,5.0,87.0,6.0,high,5,0.0,2.0,0.0,358.7000000178814,fast,0,1777797,588,main_task,9.0,16.0,0.0,87.0
8944.0,193.0,5.0,88.0,6.0,high,4,1.0,0.0,0.0,449.6999999880791,fast,0,1779274,590,main_task,9.0,16.0,0.0,88.0
8944.0,194.0,5.0,89.0,6.0,high,1,2.0,0.0,0.0,370.10000002384186,fast,0,1780665,592,main_task,9.0,18.0,0.0,89.0
8944.0,195.0,5.0,90.0,6.0,high,6,0.0,2.0,0.0,348.30000001192093,fast,0,1782028,594,main_task,9.0,17.0,0.0,90.0
8944.0,196.0,6.0,1.0,2.0,low,1,0.0,1.0,0.0,496.1999999880791,fast,0,1825424,598,main_task,11.0,16.0,0.0,1.0
