sona_id,trial_in_experiment,block,trial_in_block,set_size,load_condition,stimulus,key_press,key_answer,correct,rt,rt_category,timeout,time_elapsed,trial_index,phase_type,set,reversal_crit,counter,trial
9121.0,1.0,3.0,1.0,2.0,low,1,0.0,0.0,1.0,548.0,medium,0,318775,202,main_task,18.0,13.0,1.0,1.0
9121.0,2.0,3.0,2.0,2.0,low,2,1.0,1.0,1.0,361.0,fast,0,320143,204,main_task,18.0,17.0,1.0,2.0
9121.0,3.0,3.0,3.0,2.0,low,1,0.0,0.0,1.0,502.0,medium,0,321652,206,main_task,18.0,13.0,2.0,3.0
9121.0,4.0,3.0,4.0,2.0,low,1,0.0,0.0,1.0,847.0,medium,0,323504,208,main_task,18.0,13.0,3.0,4.0
9121.0,5.0,3.0,5.0,2.0,low,2,1.0,1.0,1.0,688.0,medium,0,325198,210,main_task,18.0,17.0,2.0,5.0
9121.0,6.0,3.0,6.0,2.0,low,2,1.0,1.0,1.0,605.0,medium,0,326808,212,main_task,18.0,17.0,3.0,6.0
9121.0,7.0,3.0,7.0,2.0,low,1,0.0,0.0,1.0,503.0,medium,0,328316,214,main_task,18.0,13.0,4.0,7.0
9121.0,8.0,3.0,8.0,2.0,low,2,1.0,1.0,1.0,675.0,medium,0,329997,216,main_task,18.0,17.0,4.0,8.0
9121.0,9.0,3.0,9.0,2.0,low,2,1.0,1.0,1.0,455.0,fast,0,331457,218,main_task,18.0,17.0,5.0,9.0
9121.0,10.0,3.0,10.0,2.0,low,1,0.0,0.0,1.0,484.0,fast,0,332948,220,main_task,18.0,13.0,5.0,10.0
9121.0,11.0,3.0,11.0,2.0,low,2,1.0,1.0,1.0,552.0,medium,0,334505,222,main_task,18.0,17.0,6.0,11.0
9121.0,12.0,3.0,12.0,2.0,low,1,0.0,0.0,1.0,512.0,medium,0,336022,224,main_task,18.0,13.0,6.0,12.0
9121.0,13.0,3.0,13.0,2.0,low,1,0.0,0.0,1.0,625.0,medium,0,337652,226,main_task,18.0,13.0,7.0,13.0
9121.0,14.0,3.0,14.0,2.0,low,2,1.0,1.0,1.0,427.0,fast,0,339084,228,main_task,18.0,17.0,7.0,14.0
9121.0,15.0,3.0,15.0,2.0,low,2,1.0,1.0,1.0,688.0,medium,0,340777,230,main_task,18.0,17.0,8.0,15.0
9121.0,16.0,3.0,16.0,2.0,low,1,0.0,0.0,1.0,484.0,fast,0,342267,232,main_task,18.0,13.0,8.0,16.0
9121.0,17.0,3.0,17.0,2.0,low,2,1.0,1.0,1.0,518.0,medium,0,343790,234,main_task,18.0,17.0,9.0,17.0
9121.0,18.0,3.0,18.0,2.0,low,1,0.0,0.0,1.0,532.0,medium,0,345329,236,main_task,18.0,13.0,9.0,18.0
9121.0,19.0,3.0,19.0,2.0,low,1,0.0,0.0,1.0,731.0,medium,0,347067,238,main_task,18.0,13.0,10.0,19.0
9121.0,20.0,3.0,20.0,2.0,low,2,1.0,1.0,1.0,557.0,medium,0,348629,240,main_task,18.0,17.0,10.0,20.0
9121.0,21.0,3.0,21.0,2.0,low,1,0.0,0.0,1.0,499.0,fast,0,350134,242,main_task,18.0,13.0,11.0,21.0
9121.0,22.0,3.0,22.0,2.0,low,1,0.0,0.0,1.0,1814.0,slow,0,352954,244,main_task,18.0,13.0,12.0,22.0
9121.0,23.0,3.0,23.0,2.0,low,2,1.0,1.0,1.0,757.0,medium,0,354715,246,main_task,18.0,17.0,11.0,23.0
9121.0,24.0,3.0,24.0,2.0,low,2,1.0,1.0,1.0,669.0,medium,0,356390,248,main_task,18.0,17.0,12.0,24.0
9121.0,25.0,3.0,25.0,2.0,low,1,0.0,0.0,1.0,786.0,medium,0,358183,250,main_task,18.0,13.0,13.0,25.0
9121.0,26.0,3.0,26.0,2.0,low,2,1.0,1.0,1.0,203.0,fast,0,359393,252,main_task,18.0,17.0,13.0,26.0
9121.0,27.0,3.0,27.0,2.0,low,1,1.0,2.0,0.0,195.0,fast,0,360592,254,main_task,18.0,inf,0.0,27.0
9121.0,28.0,3.0,28.0,2.0,low,2,0.0,1.0,0.0,499.0,fast,0,362097,256,main_task,18.0,17.0,0.0,28.0
9121.0,29.0,3.0,29.0,2.0,low,2,1.0,1.0,1.0,1568.0,slow,0,364670,258,main_task,18.0,17.0,1.0,29.0
9121.0,30.0,3.0,30.0,2.0,low,1,0.0,2.0,0.0,377.0,fast,0,366053,260,main_task,18.0,inf,0.0,30.0
9121.0,31.0,5.0,1.0,3.0,low,1,0.0,1.0,0.0,838.0,medium,0,372658,264,main_task,9.0,12.0,0.0,1.0
9121.0,32.0,5.0,2.0,3.0,low,2,0.0,0.0,1.0,412.0,fast,0,374077,266,main_task,9.0,15.0,1.0,2.0
9121.0,33.0,5.0,3.0,3.0,low,3,0.0,1.0,0.0,583.0,medium,0,375665,268,main_task,9.0,18.0,0.0,3.0
9121.0,34.0,5.0,4.0,3.0,low,3,1.0,1.0,1.0,752.0,medium,0,377423,270,main_task,9.0,18.0,1.0,4.0
9121.0,35.0,5.0,5.0,3.0,low,1,0.0,1.0,0.0,842.0,medium,0,379270,272,main_task,9.0,12.0,0.0,5.0
9121.0,36.0,5.0,6.0,3.0,low,2,0.0,0.0,1.0,459.0,fast,0,380734,274,main_task,9.0,15.0,2.0,6.0
9121.0,37.0,5.0,7.0,3.0,low,3,1.0,1.0,1.0,426.0,fast,0,382166,276,main_task,9.0,18.0,2.0,7.0
9121.0,38.0,5.0,8.0,3.0,low,2,2.0,0.0,0.0,487.0,fast,0,383659,278,main_task,9.0,15.0,0.0,8.0
9121.0,39.0,5.0,9.0,3.0,low,2,1.0,0.0,0.0,415.0,fast,0,385080,280,main_task,9.0,15.0,0.0,9.0
9121.0,40.0,5.0,10.0,3.0,low,1,1.0,1.0,1.0,697.0,medium,0,386782,282,main_task,9.0,12.0,1.0,10.0
9121.0,41.0,5.0,11.0,3.0,low,2,0.0,0.0,1.0,639.0,medium,0,388426,284,main_task,9.0,15.0,1.0,11.0
9121.0,42.0,5.0,12.0,3.0,low,3,1.0,1.0,1.0,600.0,medium,0,390031,286,main_task,9.0,18.0,3.0,12.0
9121.0,43.0,5.0,13.0,3.0,low,1,1.0,1.0,1.0,518.0,medium,0,391555,288,main_task,9.0,12.0,2.0,13.0
9121.0,44.0,5.0,14.0,3.0,low,3,0.0,1.0,0.0,406.0,fast,0,392968,290,main_task,9.0,18.0,0.0,14.0
9121.0,45.0,5.0,15.0,3.0,low,1,1.0,1.0,1.0,645.0,medium,0,394619,292,main_task,9.0,12.0,3.0,15.0
9121.0,46.0,5.0,16.0,3.0,low,2,0.0,0.0,1.0,544.0,medium,0,396169,294,main_task,9.0,15.0,2.0,16.0
9121.0,47.0,5.0,17.0,3.0,low,3,1.0,1.0,1.0,598.0,medium,0,397773,296,main_task,9.0,18.0,1.0,17.0
9121.0,48.0,5.0,18.0,3.0,low,3,1.0,1.0,1.0,1021.0,slow,0,399800,298,main_task,9.0,18.0,2.0,18.0
9121.0,49.0,5.0,19.0,3.0,low,1,1.0,1.0,1.0,757.0,medium,0,401563,300,main_task,9.0,12.0,4.0,19.0
9121.0,50.0,5.0,20.0,3.0,low,1,1.0,1.0,1.0,657.0,medium,0,403226,302,main_task,9.0,12.0,5.0,20.0
9121.0,51.0,5.0,21.0,3.0,low,2,1.0,0.0,0.0,702.0,medium,0,404934,304,main_task,9.0,15.0,0.0,21.0
9121.0,52.0,5.0,22.0,3.0,low,3,1.0,1.0,1.0,619.0,medium,0,406559,306,main_task,9.0,18.0,3.0,22.0
9121.0,53.0,5.0,23.0,3.0,low,1,1.0,1.0,1.0,519.0,medium,0,408084,308,main_task,9.0,12.0,6.0,23.0
9121.0,54.0,5.0,24.0,3.0,low,2,0.0,0.0,1.0,386.0,fast,0,409476,310,main_task,9.0,15.0,1.0,24.0
9121.0,55.0,5.0,25.0,3.0,low,2,0.0,0.0,1.0,751.0,medium,0,411232,312,main_task,9.0,15.0,2.0,25.0
9121.0,56.0,5.0,26.0,3.0,low,3,1.0,1.0,1.0,418.0,fast,0,412657,314,main_task,9.0,18.0,4.0,26.0
9121.0,57.0,5.0,27.0,3.0,low,1,1.0,1.0,1.0,982.0,medium,0,414644,316,main_task,9.0,12.0,7.0,27.0
9121.0,58.0,5.0,28.0,3.0,low,3,1.0,1.0,1.0,452.0,fast,0,416101,318,main_task,9.0,18.0,5.0,28.0
9121.0,59.0,5.0,29.0,3.0,low,1,1.0,1.0,1.0,535.0,medium,0,417641,320,main_task,9.0,12.0,8.0,29.0
9121.0,60.0,5.0,30.0,3.0,low,2,0.0,0.0,1.0,528.0,medium,0,419172,322,main_task,9.0,15.0,3.0,30.0
9121.0,61.0,5.0,31.0,3.0,low,3,1.0,1.0,1.0,1188.0,slow,0,421366,324,main_task,9.0,18.0,6.0,31.0
9121.0,62.0,5.0,32.0,3.0,low,3,1.0,1.0,1.0,513.0,medium,0,422884,326,main_task,9.0,18.0,7.0,32.0
9121.0,63.0,5.0,33.0,3.0,low,2,0.0,0.0,1.0,799.0,medium,0,424690,328,main_task,9.0,15.0,4.0,33.0
9121.0,64.0,5.0,34.0,3.0,low,1,1.0,1.0,1.0,725.0,medium,0,426421,330,main_task,9.0,12.0,9.0,34.0
9121.0,65.0,5.0,35.0,3.0,low,1,1.0,1.0,1.0,644.0,medium,0,428071,332,main_task,9.0,12.0,10.0,35.0
9121.0,66.0,5.0,36.0,3.0,low,2,0.0,0.0,1.0,713.0,medium,0,429789,334,main_task,9.0,15.0,5.0,36.0
9121.0,67.0,5.0,37.0,3.0,low,3,1.0,1.0,1.0,698.0,medium,0,431493,336,main_task,9.0,18.0,8.0,37.0
9121.0,68.0,5.0,38.0,3.0,low,2,0.0,0.0,1.0,782.0,medium,0,433280,338,main_task,9.0,15.0,6.0,38.0
9121.0,69.0,5.0,39.0,3.0,low,1,1.0,1.0,1.0,730.0,medium,0,435015,340,main_task,9.0,12.0,11.0,39.0
9121.0,70.0,5.0,40.0,3.0,low,1,1.0,1.0,1.0,1539.0,slow,0,437560,342,main_task,9.0,12.0,12.0,40.0
9121.0,71.0,5.0,41.0,3.0,low,3,1.0,1.0,1.0,508.0,medium,0,439074,344,main_task,9.0,18.0,9.0,41.0
9121.0,72.0,5.0,42.0,3.0,low,2,1.0,0.0,0.0,503.0,medium,0,440584,346,main_task,9.0,15.0,0.0,42.0
9121.0,73.0,5.0,43.0,3.0,low,3,1.0,1.0,1.0,538.0,medium,0,442127,348,main_task,9.0,18.0,10.0,43.0
9121.0,74.0,5.0,44.0,3.0,low,2,1.0,0.0,0.0,639.0,medium,0,443772,350,main_task,9.0,15.0,0.0,44.0
9121.0,75.0,5.0,45.0,3.0,low,1,1.0,0.0,0.0,542.0,medium,0,445320,352,main_task,9.0,inf,0.0,45.0
9121.0,76.0,6.0,1.0,5.0,high,1,0.0,0.0,1.0,320.0,fast,0,492921,356,main_task,3.0,16.0,1.0,1.0
9121.0,77.0,6.0,2.0,5.0,high,2,0.0,2.0,0.0,304.0,fast,0,494231,358,main_task,3.0,14.0,0.0,2.0
9121.0,78.0,6.0,3.0,5.0,high,3,0.0,1.0,0.0,417.0,fast,0,495654,360,main_task,3.0,16.0,0.0,3.0
9121.0,79.0,6.0,4.0,5.0,high,4,0.0,0.0,1.0,445.0,fast,0,497105,362,main_task,3.0,13.0,1.0,4.0
9121.0,80.0,6.0,5.0,5.0,high,5,0.0,2.0,0.0,486.0,fast,0,498597,364,main_task,3.0,14.0,0.0,5.0
9121.0,81.0,6.0,6.0,5.0,high,5,0.0,2.0,0.0,531.0,medium,0,500134,366,main_task,3.0,14.0,0.0,6.0
9121.0,82.0,6.0,7.0,5.0,high,1,0.0,0.0,1.0,507.0,medium,0,501647,368,main_task,3.0,16.0,2.0,7.0
9121.0,83.0,6.0,8.0,5.0,high,4,0.0,0.0,1.0,635.0,medium,0,503287,370,main_task,3.0,13.0,2.0,8.0
9121.0,84.0,6.0,9.0,5.0,high,2,1.0,2.0,0.0,582.0,medium,0,504874,372,main_task,3.0,14.0,0.0,9.0
9121.0,85.0,6.0,10.0,5.0,high,3,1.0,1.0,1.0,623.0,medium,0,506503,374,main_task,3.0,16.0,1.0,10.0
9121.0,86.0,6.0,11.0,5.0,high,2,1.0,2.0,0.0,978.0,medium,0,508488,376,main_task,3.0,14.0,0.0,11.0
9121.0,87.0,6.0,12.0,5.0,high,1,0.0,0.0,1.0,758.0,medium,0,510252,378,main_task,3.0,16.0,3.0,12.0
9121.0,88.0,6.0,13.0,5.0,high,3,0.0,1.0,0.0,532.0,medium,0,511791,380,main_task,3.0,16.0,0.0,13.0
9121.0,89.0,6.0,14.0,5.0,high,5,1.0,2.0,0.0,793.0,medium,0,513588,382,main_task,3.0,14.0,0.0,14.0
9121.0,90.0,6.0,15.0,5.0,high,3,2.0,1.0,0.0,397.0,fast,0,514995,384,main_task,3.0,16.0,0.0,15.0
9121.0,91.0,6.0,16.0,5.0,high,4,0.0,0.0,1.0,561.0,medium,0,516562,386,main_task,3.0,13.0,3.0,16.0
9121.0,92.0,6.0,17.0,5.0,high,5,0.0,2.0,0.0,1136.0,slow,0,518704,388,main_task,3.0,14.0,0.0,17.0
9121.0,93.0,6.0,18.0,5.0,high,1,-1.0,0.0,0.0,,,0,521711,390,main_task,3.0,16.0,0.0,18.0
9121.0,94.0,6.0,19.0,5.0,high,3,0.0,1.0,0.0,346.0,fast,0,523063,392,main_task,3.0,16.0,0.0,19.0
9121.0,95.0,6.0,20.0,5.0,high,2,1.0,2.0,0.0,526.0,medium,0,524595,394,main_task,3.0,14.0,0.0,20.0
9121.0,96.0,6.0,21.0,5.0,high,4,1.0,0.0,0.0,547.0,medium,0,526147,396,main_task,3.0,13.0,0.0,21.0
9121.0,97.0,6.0,22.0,5.0,high,4,0.0,0.0,1.0,528.0,medium,0,527681,398,main_task,3.0,13.0,1.0,22.0
9121.0,98.0,6.0,23.0,5.0,high,5,0.0,2.0,0.0,897.0,medium,0,529583,400,main_task,3.0,14.0,0.0,23.0
9121.0,99.0,6.0,24.0,5.0,high,2,1.0,2.0,0.0,634.0,medium,0,531224,402,main_task,3.0,14.0,0.0,24.0
9121.0,100.0,6.0,25.0,5.0,high,1,2.0,0.0,0.0,907.0,medium,0,533137,404,main_task,3.0,16.0,0.0,25.0
9121.0,101.0,6.0,26.0,5.0,high,1,0.0,0.0,1.0,866.0,medium,0,535008,406,main_task,3.0,16.0,1.0,26.0
9121.0,102.0,6.0,27.0,5.0,high,3,1.0,1.0,1.0,1240.0,slow,0,537254,408,main_task,3.0,16.0,1.0,27.0
9121.0,103.0,6.0,28.0,5.0,high,5,1.0,2.0,0.0,717.0,medium,0,538977,410,main_task,3.0,14.0,0.0,28.0
9121.0,104.0,6.0,29.0,5.0,high,4,0.0,0.0,1.0,624.0,medium,0,540607,412,main_task,3.0,13.0,2.0,29.0
9121.0,105.0,6.0,30.0,5.0,high,2,1.0,2.0,0.0,1140.0,slow,0,542753,414,main_task,3.0,14.0,0.0,30.0
9121.0,106.0,6.0,31.0,5.0,high,5,1.0,2.0,0.0,743.0,medium,0,544502,416,main_task,3.0,14.0,0.0,31.0
9121.0,107.0,6.0,32.0,5.0,high,2,0.0,2.0,0.0,1233.0,slow,0,546742,418,main_task,3.0,14.0,0.0,32.0
9121.0,108.0,6.0,33.0,5.0,high,4,1.0,0.0,0.0,603.0,medium,0,548351,420,main_task,3.0,13.0,0.0,33.0
9121.0,109.0,6.0,34.0,5.0,high,1,2.0,0.0,0.0,557.0,medium,0,549914,422,main_task,3.0,16.0,0.0,34.0
9121.0,110.0,6.0,35.0,5.0,high,4,1.0,0.0,0.0,1462.0,slow,0,552382,424,main_task,3.0,13.0,0.0,35.0
9121.0,111.0,6.0,36.0,5.0,high,3,1.0,1.0,1.0,872.0,medium,0,554260,426,main_task,3.0,16.0,2.0,36.0
9121.0,112.0,6.0,37.0,5.0,high,3,1.0,1.0,1.0,1538.0,slow,0,556804,428,main_task,3.0,16.0,3.0,37.0
9121.0,113.0,6.0,38.0,5.0,high,5,1.0,2.0,0.0,695.0,medium,0,558504,430,main_task,3.0,14.0,0.0,38.0
9121.0,114.0,6.0,39.0,5.0,high,1,0.0,0.0,1.0,650.0,medium,0,560159,432,main_task,3.0,16.0,1.0,39.0
9121.0,115.0,6.0,40.0,5.0,high,3,-1.0,1.0,0.0,,,0,563166,434,main_task,3.0,16.0,0.0,40.0
9121.0,116.0,6.0,41.0,5.0,high,2,1.0,2.0,0.0,452.0,fast,0,564625,436,main_task,3.0,14.0,0.0,41.0
9121.0,117.0,6.0,42.0,5.0,high,2,-1.0,2.0,0.0,,,0,567632,438,main_task,3.0,14.0,0.0,42.0
9121.0,118.0,6.0,43.0,5.0,high,5,0.0,2.0,0.0,110.0,fast,0,568748,440,main_task,3.0,14.0,0.0,43.0
9121.0,119.0,6.0,44.0,5.0,high,4,1.0,0.0,0.0,263.0,fast,0,570017,442,main_task,3.0,13.0,0.0,44.0
9121.0,120.0,6.0,45.0,5.0,high,1,2.0,0.0,0.0,126.0,fast,0,571149,444,main_task,3.0,16.0,0.0,45.0
9121.0,121.0,6.0,46.0,5.0,high,5,1.0,2.0,0.0,208.0,fast,0,572363,446,main_task,3.0,14.0,0.0,46.0
9121.0,122.0,6.0,47.0,5.0,high,1,0.0,0.0,1.0,340.0,fast,0,573709,448,main_task,3.0,16.0,1.0,47.0
9121.0,123.0,6.0,48.0,5.0,high,4,1.0,0.0,0.0,504.0,medium,0,575219,450,main_task,3.0,13.0,0.0,48.0
9121.0,124.0,6.0,49.0,5.0,high,3,0.0,1.0,0.0,690.0,medium,0,576914,452,main_task,3.0,16.0,0.0,49.0
9121.0,125.0,6.0,50.0,5.0,high,2,1.0,2.0,0.0,1508.0,slow,0,579428,454,main_task,3.0,14.0,0.0,50.0
9121.0,126.0,6.0,51.0,5.0,high,5,2.0,2.0,1.0,963.0,medium,0,581397,456,main_task,3.0,14.0,1.0,51.0
9121.0,127.0,6.0,52.0,5.0,high,3,1.0,1.0,1.0,581.0,medium,0,582985,458,main_task,3.0,16.0,1.0,52.0
9121.0,128.0,6.0,53.0,5.0,high,1,1.0,0.0,0.0,1550.0,slow,0,585540,460,main_task,3.0,16.0,0.0,53.0
9121.0,129.0,6.0,54.0,5.0,high,2,0.0,2.0,0.0,265.0,fast,0,586811,462,main_task,3.0,14.0,0.0,54.0
9121.0,130.0,6.0,55.0,5.0,high,4,2.0,0.0,0.0,944.0,medium,0,588761,464,main_task,3.0,13.0,0.0,55.0
9121.0,131.0,6.0,56.0,5.0,high,4,2.0,0.0,0.0,361.0,fast,0,590128,466,main_task,3.0,13.0,0.0,56.0
9121.0,132.0,6.0,57.0,5.0,high,2,1.0,2.0,0.0,358.0,fast,0,591491,468,main_task,3.0,14.0,0.0,57.0
9121.0,133.0,6.0,58.0,5.0,high,3,0.0,1.0,0.0,829.0,medium,0,593325,470,main_task,3.0,16.0,0.0,58.0
9121.0,134.0,6.0,59.0,5.0,high,5,1.0,2.0,0.0,196.0,fast,0,594527,472,main_task,3.0,14.0,0.0,59.0
9121.0,135.0,6.0,60.0,5.0,high,1,0.0,0.0,1.0,830.0,medium,0,596364,474,main_task,3.0,16.0,1.0,60.0
9121.0,136.0,6.0,61.0,5.0,high,5,2.0,2.0,1.0,588.0,medium,0,597957,476,main_task,3.0,14.0,1.0,61.0
9121.0,137.0,6.0,62.0,5.0,high,3,1.0,1.0,1.0,595.0,medium,0,599559,478,main_task,3.0,16.0,1.0,62.0
9121.0,138.0,6.0,63.0,5.0,high,3,1.0,1.0,1.0,467.0,fast,0,601032,480,main_task,3.0,16.0,2.0,63.0
9121.0,139.0,6.0,64.0,5.0,high,4,1.0,0.0,0.0,1091.0,slow,0,603128,482,main_task,3.0,13.0,0.0,64.0
9121.0,140.0,6.0,65.0,5.0,high,1,0.0,0.0,1.0,1606.0,slow,0,605740,484,main_task,3.0,16.0,2.0,65.0
9121.0,141.0,6.0,66.0,5.0,high,2,0.0,2.0,0.0,697.0,medium,0,607444,486,main_task,3.0,14.0,0.0,66.0
9121.0,142.0,6.0,67.0,5.0,high,1,0.0,0.0,1.0,516.0,medium,0,608965,488,main_task,3.0,16.0,3.0,67.0
9121.0,143.0,6.0,68.0,5.0,high,4,0.0,0.0,1.0,648.0,medium,0,610619,490,main_task,3.0,13.0,1.0,68.0
9121.0,144.0,6.0,69.0,5.0,high,2,0.0,2.0,0.0,562.0,medium,0,612186,492,main_task,3.0,14.0,0.0,69.0
9121.0,145.0,6.0,70.0,5.0,high,5,2.0,2.0,1.0,537.0,medium,0,613727,494,main_task,3.0,14.0,2.0,70.0
9121.0,146.0,6.0,71.0,5.0,high,5,2.0,2.0,1.0,755.0,medium,0,615487,496,main_task,3.0,14.0,3.0,71.0
9121.0,147.0,6.0,72.0,5.0,high,3,1.0,1.0,1.0,709.0,medium,0,617200,498,main_task,3.0,16.0,3.0,72.0
9121.0,148.0,6.0,73.0,5.0,high,4,1.0,0.0,0.0,725.0,medium,0,618927,500,main_task,3.0,13.0,0.0,73.0
9121.0,149.0,6.0,74.0,5.0,high,1,0.0,0.0,1.0,641.0,medium,0,620574,502,main_task,3.0,16.0,4.0,74.0
9121.0,150.0,6.0,75.0,5.0,high,2,2.0,2.0,1.0,725.0,medium,0,622303,504,main_task,3.0,14.0,1.0,75.0
9121.0,151.0,7.0,1.0,6.0,high,1,0.0,2.0,0.0,351.0,fast,0,628873,508,main_task,14.0,18.0,0.0,1.0
9121.0,152.0,7.0,2.0,6.0,high,2,0.0,2.0,0.0,448.0,fast,0,630328,510,main_task,14.0,17.0,0.0,2.0
9121.0,153.0,7.0,3.0,6.0,high,3,0.0,2.0,0.0,503.0,medium,0,631838,512,main_task,14.0,14.0,0.0,3.0
9121.0,154.0,7.0,4.0,6.0,high,4,0.0,0.0,1.0,435.0,fast,0,633279,514,main_task,14.0,13.0,1.0,4.0
9121.0,155.0,7.0,5.0,6.0,high,5,0.0,2.0,0.0,597.0,medium,0,634882,516,main_task,14.0,18.0,0.0,5.0
9121.0,156.0,7.0,6.0,6.0,high,6,0.0,0.0,1.0,549.0,medium,0,636438,518,main_task,14.0,15.0,1.0,6.0
9121.0,157.0,7.0,7.0,6.0,high,6,0.0,0.0,1.0,491.0,fast,0,637934,520,main_task,14.0,15.0,2.0,7.0
9121.0,158.0,7.0,8.0,6.0,high,3,1.0,2.0,0.0,667.0,medium,0,639607,522,main_task,14.0,14.0,0.0,8.0
9121.0,159.0,7.0,9.0,6.0,high,1,0.0,2.0,0.0,639.0,medium,0,641251,524,main_task,14.0,18.0,0.0,9.0
9121.0,160.0,7.0,10.0,6.0,high,4,0.0,0.0,1.0,1479.0,slow,0,643736,526,main_task,14.0,13.0,2.0,10.0
9121.0,161.0,7.0,11.0,6.0,high,2,0.0,2.0,0.0,554.0,medium,0,645297,528,main_task,14.0,17.0,0.0,11.0
9121.0,162.0,7.0,12.0,6.0,high,5,0.0,2.0,0.0,673.0,medium,0,646975,530,main_task,14.0,18.0,0.0,12.0
9121.0,163.0,7.0,13.0,6.0,high,4,0.0,0.0,1.0,826.0,medium,0,648807,532,main_task,14.0,13.0,3.0,13.0
9121.0,164.0,7.0,14.0,6.0,high,5,1.0,2.0,0.0,746.0,medium,0,650559,534,main_task,14.0,18.0,0.0,14.0
9121.0,165.0,7.0,15.0,6.0,high,2,0.0,2.0,0.0,859.0,medium,0,652423,536,main_task,14.0,17.0,0.0,15.0
9121.0,166.0,7.0,16.0,6.0,high,3,1.0,2.0,0.0,854.0,medium,0,654284,538,main_task,14.0,14.0,0.0,16.0
9121.0,167.0,7.0,17.0,6.0,high,6,0.0,0.0,1.0,646.0,medium,0,655936,540,main_task,14.0,15.0,3.0,17.0
9121.0,168.0,7.0,18.0,6.0,high,1,1.0,2.0,0.0,787.0,medium,0,657729,542,main_task,14.0,18.0,0.0,18.0
9121.0,169.0,7.0,19.0,6.0,high,5,1.0,2.0,0.0,751.0,medium,0,659486,544,main_task,14.0,18.0,0.0,19.0
9121.0,170.0,7.0,20.0,6.0,high,1,2.0,2.0,1.0,479.0,fast,0,660971,546,main_task,14.0,18.0,1.0,20.0
9121.0,171.0,7.0,21.0,6.0,high,2,2.0,2.0,1.0,671.0,medium,0,662648,548,main_task,14.0,17.0,1.0,21.0
9121.0,172.0,7.0,22.0,6.0,high,6,0.0,0.0,1.0,597.0,medium,0,664250,550,main_task,14.0,15.0,4.0,22.0
9121.0,173.0,7.0,23.0,6.0,high,4,0.0,0.0,1.0,500.0,fast,0,665756,552,main_task,14.0,13.0,4.0,23.0
9121.0,174.0,7.0,24.0,6.0,high,2,2.0,2.0,1.0,420.0,fast,0,667181,554,main_task,14.0,17.0,2.0,24.0
9121.0,175.0,7.0,25.0,6.0,high,3,2.0,2.0,1.0,466.0,fast,0,668654,556,main_task,14.0,14.0,1.0,25.0
9121.0,176.0,7.0,26.0,6.0,high,5,2.0,2.0,1.0,498.0,fast,0,670158,558,main_task,14.0,18.0,1.0,26.0
9121.0,177.0,7.0,27.0,6.0,high,4,2.0,0.0,0.0,567.0,medium,0,671730,560,main_task,14.0,13.0,0.0,27.0
9121.0,178.0,7.0,28.0,6.0,high,3,2.0,2.0,1.0,562.0,medium,0,673297,562,main_task,14.0,14.0,2.0,28.0
9121.0,179.0,7.0,29.0,6.0,high,6,0.0,0.0,1.0,400.0,fast,0,674703,564,main_task,14.0,15.0,5.0,29.0
9121.0,180.0,7.0,30.0,6.0,high,6,0.0,0.0,1.0,565.0,medium,0,676274,566,main_task,14.0,15.0,6.0,30.0
9121.0,181.0,7.0,31.0,6.0,high,1,2.0,2.0,1.0,593.0,medium,0,677872,568,main_task,14.0,18.0,2.0,31.0
9121.0,182.0,7.0,32.0,6.0,high,5,2.0,2.0,1.0,557.0,medium,0,679436,570,main_task,14.0,18.0,2.0,32.0
9121.0,183.0,7.0,33.0,6.0,high,1,2.0,2.0,1.0,582.0,medium,0,681026,572,main_task,14.0,18.0,3.0,33.0
9121.0,184.0,7.0,34.0,6.0,high,2,2.0,2.0,1.0,627.0,medium,0,682659,574,main_task,14.0,17.0,3.0,34.0
9121.0,185.0,7.0,35.0,6.0,high,4,0.0,0.0,1.0,410.0,fast,0,684075,576,main_task,14.0,13.0,1.0,35.0
9121.0,186.0,7.0,36.0,6.0,high,3,2.0,2.0,1.0,521.0,medium,0,685602,578,main_task,14.0,14.0,3.0,36.0
9121.0,187.0,7.0,37.0,6.0,high,3,0.0,2.0,0.0,692.0,medium,0,687299,580,main_task,14.0,14.0,0.0,37.0
9121.0,188.0,7.0,38.0,6.0,high,2,2.0,2.0,1.0,650.0,medium,0,688955,582,main_task,14.0,17.0,4.0,38.0
9121.0,189.0,7.0,39.0,6.0,high,6,0.0,0.0,1.0,671.0,medium,0,690632,584,main_task,14.0,15.0,7.0,39.0
9121.0,190.0,7.0,40.0,6.0,high,1,2.0,2.0,1.0,546.0,medium,0,692184,586,main_task,14.0,18.0,4.0,40.0
9121.0,191.0,7.0,41.0,6.0,high,4,0.0,0.0,1.0,734.0,medium,0,693922,588,main_task,14.0,13.0,2.0,41.0
9121.0,192.0,7.0,42.0,6.0,high,5,2.0,2.0,1.0,514.0,medium,0,695442,590,main_task,14.0,18.0,3.0,42.0
9121.0,193.0,7.0,43.0,6.0,high,5,-1.0,2.0,0.0,,,0,698447,592,main_task,14.0,18.0,0.0,43.0
9121.0,194.0,7.0,44.0,6.0,high,1,2.0,2.0,1.0,913.0,medium,0,700366,594,main_task,14.0,18.0,5.0,44.0
9121.0,195.0,7.0,45.0,6.0,high,4,0.0,0.0,1.0,470.0,fast,0,701841,596,main_task,14.0,13.0,3.0,45.0
9121.0,196.0,7.0,46.0,6.0,high,2,2.0,2.0,1.0,500.0,fast,0,703348,598,main_task,14.0,17.0,5.0,46.0
9121.0,197.0,7.0,47.0,6.0,high,3,2.0,2.0,1.0,544.0,medium,0,704899,600,main_task,14.0,14.0,1.0,47.0
9121.0,198.0,7.0,48.0,6.0,high,4,0.0,0.0,1.0,630.0,medium,0,706536,602,main_task,14.0,13.0,4.0,48.0
9121.0,199.0,7.0,49.0,6.0,high,1,2.0,2.0,1.0,597.0,medium,0,708140,604,main_task,14.0,18.0,6.0,49.0
9121.0,200.0,7.0,50.0,6.0,high,6,2.0,0.0,0.0,989.0,medium,0,710134,606,main_task,14.0,15.0,0.0,50.0
9121.0,201.0,7.0,51.0,6.0,high,6,2.0,0.0,0.0,649.0,medium,0,711788,608,main_task,14.0,15.0,0.0,51.0
9121.0,202.0,7.0,52.0,6.0,high,5,2.0,2.0,1.0,554.0,medium,0,713349,610,main_task,14.0,18.0,1.0,52.0
9121.0,203.0,7.0,53.0,6.0,high,6,0.0,0.0,1.0,868.0,medium,0,715224,612,main_task,14.0,15.0,1.0,53.0
9121.0,204.0,7.0,54.0,6.0,high,3,2.0,2.0,1.0,809.0,medium,0,717039,614,main_task,14.0,14.0,2.0,54.0
9121.0,205.0,7.0,55.0,6.0,high,5,2.0,2.0,1.0,844.0,medium,0,718888,616,main_task,14.0,18.0,2.0,55.0
9121.0,206.0,7.0,56.0,6.0,high,3,2.0,2.0,1.0,734.0,medium,0,720628,618,main_task,14.0,14.0,3.0,56.0
9121.0,207.0,7.0,57.0,6.0,high,2,2.0,2.0,1.0,125.0,fast,0,721759,620,main_task,14.0,17.0,6.0,57.0
9121.0,208.0,7.0,58.0,6.0,high,4,2.0,0.0,0.0,484.0,fast,0,723250,622,main_task,14.0,13.0,0.0,58.0
9121.0,209.0,7.0,59.0,6.0,high,2,2.0,2.0,1.0,462.0,fast,0,724716,624,main_task,14.0,17.0,7.0,59.0
9121.0,210.0,7.0,60.0,6.0,high,1,2.0,2.0,1.0,1375.0,slow,0,727096,626,main_task,14.0,18.0,7.0,60.0
9121.0,211.0,7.0,61.0,6.0,high,3,2.0,2.0,1.0,509.0,medium,0,728612,628,main_task,14.0,14.0,4.0,61.0
9121.0,212.0,7.0,62.0,6.0,high,6,2.0,0.0,0.0,390.0,fast,0,730007,630,main_task,14.0,15.0,0.0,62.0
9121.0,213.0,7.0,63.0,6.0,high,2,2.0,2.0,1.0,450.0,fast,0,731463,632,main_task,14.0,17.0,8.0,63.0
9121.0,214.0,7.0,64.0,6.0,high,4,2.0,0.0,0.0,575.0,medium,0,733045,634,main_task,14.0,13.0,0.0,64.0
9121.0,215.0,7.0,65.0,6.0,high,1,2.0,2.0,1.0,647.0,medium,0,734697,636,main_task,14.0,18.0,8.0,65.0
9121.0,216.0,7.0,66.0,6.0,high,5,2.0,2.0,1.0,541.0,medium,0,736245,638,main_task,14.0,18.0,3.0,66.0
9121.0,217.0,7.0,67.0,6.0,high,4,0.0,0.0,1.0,547.0,medium,0,737798,640,main_task,14.0,13.0,1.0,67.0
9121.0,218.0,7.0,68.0,6.0,high,3,2.0,2.0,1.0,449.0,fast,0,739253,642,main_task,14.0,14.0,5.0,68.0
9121.0,219.0,7.0,69.0,6.0,high,2,2.0,2.0,1.0,526.0,medium,0,740785,644,main_task,14.0,17.0,9.0,69.0
9121.0,220.0,7.0,70.0,6.0,high,6,0.0,0.0,1.0,608.0,medium,0,742399,646,main_task,14.0,15.0,1.0,70.0
9121.0,221.0,7.0,71.0,6.0,high,1,2.0,2.0,1.0,847.0,medium,0,744252,648,main_task,14.0,18.0,9.0,71.0
9121.0,222.0,7.0,72.0,6.0,high,1,2.0,2.0,1.0,496.0,fast,0,745754,650,main_task,14.0,18.0,10.0,72.0
9121.0,223.0,7.0,73.0,6.0,high,5,2.0,2.0,1.0,532.0,medium,0,747292,652,main_task,14.0,18.0,4.0,73.0
9121.0,224.0,7.0,74.0,6.0,high,2,2.0,2.0,1.0,555.0,medium,0,748853,654,main_task,14.0,17.0,10.0,74.0
9121.0,225.0,7.0,75.0,6.0,high,5,2.0,2.0,1.0,619.0,medium,0,750479,656,main_task,14.0,18.0,5.0,75.0
9121.0,226.0,7.0,76.0,6.0,high,4,0.0,0.0,1.0,621.0,medium,0,752105,658,main_task,14.0,13.0,2.0,76.0
9121.0,227.0,7.0,77.0,6.0,high,4,0.0,0.0,1.0,645.0,medium,0,753756,660,main_task,14.0,13.0,3.0,77.0
9121.0,228.0,7.0,78.0,6.0,high,6,0.0,0.0,1.0,519.0,medium,0,755279,662,main_task,14.0,15.0,2.0,78.0
9121.0,229.0,7.0,79.0,6.0,high,3,2.0,2.0,1.0,545.0,medium,0,756830,664,main_task,14.0,14.0,6.0,79.0
9121.0,230.0,7.0,80.0,6.0,high,1,2.0,2.0,1.0,558.0,medium,0,758394,666,main_task,14.0,18.0,11.0,80.0
9121.0,231.0,7.0,81.0,6.0,high,6,0.0,0.0,1.0,737.0,medium,0,760137,668,main_task,14.0,15.0,3.0,81.0
9121.0,232.0,7.0,82.0,6.0,high,3,2.0,2.0,1.0,552.0,medium,0,761696,670,main_task,14.0,14.0,7.0,82.0
9121.0,233.0,7.0,83.0,6.0,high,2,2.0,2.0,1.0,503.0,medium,0,763206,672,main_task,14.0,17.0,11.0,83.0
9121.0,234.0,7.0,84.0,6.0,high,1,2.0,2.0,1.0,529.0,medium,0,764741,674,main_task,14.0,18.0,12.0,84.0
9121.0,235.0,7.0,85.0,6.0,high,5,2.0,2.0,1.0,585.0,medium,0,766332,676,main_task,14.0,18.0,6.0,85.0
9121.0,236.0,7.0,86.0,6.0,high,6,0.0,0.0,1.0,664.0,medium,0,768001,678,main_task,14.0,15.0,4.0,86.0
9121.0,237.0,7.0,87.0,6.0,high,5,2.0,2.0,1.0,480.0,fast,0,769487,680,main_task,14.0,18.0,7.0,87.0
9121.0,238.0,7.0,88.0,6.0,high,4,2.0,0.0,0.0,688.0,medium,0,771181,682,main_task,14.0,13.0,0.0,88.0
9121.0,239.0,7.0,89.0,6.0,high,3,2.0,2.0,1.0,610.0,medium,0,772796,684,main_task,14.0,14.0,8.0,89.0
9121.0,240.0,7.0,90.0,6.0,high,3,2.0,2.0,1.0,859.0,medium,0,774662,686,main_task,14.0,14.0,9.0,90.0
9121.0,241.0,8.0,1.0,2.0,low,1,0.0,1.0,0.0,527.0,medium,0,784626,690,main_task,19.0,16.0,0.0,1.0
9121.0,242.0,8.0,2.0,2.0,low,2,0.0,2.0,0.0,305.0,fast,0,785938,692,main_task,19.0,16.0,0.0,2.0
9121.0,243.0,8.0,3.0,2.0,low,1,1.0,1.0,1.0,307.0,fast,0,787250,694,main_task,19.0,16.0,1.0,3.0
9121.0,244.0,8.0,4.0,2.0,low,2,2.0,2.0,1.0,685.0,medium,0,788942,696,main_task,19.0,16.0,1.0,4.0
9121.0,245.0,8.0,5.0,2.0,low,2,2.0,2.0,1.0,1100.0,slow,0,791048,698,main_task,19.0,16.0,2.0,5.0
9121.0,246.0,8.0,6.0,2.0,low,1,1.0,1.0,1.0,580.0,medium,0,792634,700,main_task,19.0,16.0,2.0,6.0
9121.0,247.0,8.0,7.0,2.0,low,1,1.0,1.0,1.0,662.0,medium,0,794302,702,main_task,19.0,16.0,3.0,7.0
9121.0,248.0,8.0,8.0,2.0,low,2,2.0,2.0,1.0,551.0,medium,0,795857,704,main_task,19.0,16.0,3.0,8.0
9121.0,249.0,8.0,9.0,2.0,low,2,1.0,2.0,0.0,565.0,medium,0,797428,706,main_task,19.0,16.0,0.0,9.0
9121.0,250.0,8.0,10.0,2.0,low,1,1.0,1.0,1.0,607.0,medium,0,799039,708,main_task,19.0,16.0,4.0,10.0
9121.0,251.0,8.0,11.0,2.0,low,2,2.0,2.0,1.0,391.0,fast,0,800436,710,main_task,19.0,16.0,1.0,11.0
9121.0,252.0,8.0,12.0,2.0,low,1,1.0,1.0,1.0,539.0,medium,0,801981,712,main_task,19.0,16.0,5.0,12.0
9121.0,253.0,8.0,13.0,2.0,low,1,2.0,1.0,0.0,520.0,medium,0,803507,714,main_task,19.0,16.0,0.0,13.0
9121.0,254.0,8.0,14.0,2.0,low,2,2.0,2.0,1.0,290.0,fast,0,804803,716,main_task,19.0,16.0,2.0,14.0
9121.0,255.0,8.0,15.0,2.0,low,1,1.0,1.0,1.0,538.0,medium,0,806347,718,main_task,19.0,16.0,1.0,15.0
9121.0,256.0,8.0,16.0,2.0,low,1,1.0,1.0,1.0,489.0,fast,0,807842,720,main_task,19.0,16.0,2.0,16.0
9121.0,257.0,8.0,17.0,2.0,low,2,2.0,2.0,1.0,449.0,fast,0,809296,722,main_task,19.0,16.0,3.0,17.0
9121.0,258.0,8.0,18.0,2.0,low,2,2.0,2.0,1.0,487.0,fast,0,810789,724,main_task,19.0,16.0,4.0,18.0
9121.0,259.0,8.0,19.0,2.0,low,1,1.0,1.0,1.0,513.0,medium,0,812307,726,main_task,19.0,16.0,3.0,19.0
9121.0,260.0,8.0,20.0,2.0,low,2,2.0,2.0,1.0,500.0,fast,0,813814,728,main_task,19.0,16.0,5.0,20.0
9121.0,261.0,8.0,21.0,2.0,low,1,1.0,1.0,1.0,474.0,fast,0,815293,730,main_task,19.0,16.0,4.0,21.0
9121.0,262.0,8.0,22.0,2.0,low,2,2.0,2.0,1.0,426.0,fast,0,816725,732,main_task,19.0,16.0,6.0,22.0
9121.0,263.0,8.0,23.0,2.0,low,2,2.0,2.0,1.0,499.0,fast,0,818229,734,main_task,19.0,16.0,7.0,23.0
9121.0,264.0,8.0,24.0,2.0,low,1,1.0,1.0,1.0,447.0,fast,0,819682,736,main_task,19.0,16.0,5.0,24.0
9121.0,265.0,8.0,25.0,2.0,low,1,1.0,1.0,1.0,751.0,medium,0,821440,738,main_task,19.0,16.0,6.0,25.0
9121.0,266.0,8.0,26.0,2.0,low,2,2.0,2.0,1.0,603.0,medium,0,823048,740,main_task,19.0,16.0,8.0,26.0
9121.0,267.0,8.0,27.0,2.0,low,2,1.0,2.0,0.0,446.0,fast,0,824500,742,main_task,19.0,16.0,0.0,27.0
9121.0,268.0,8.0,28.0,2.0,low,1,1.0,1.0,1.0,544.0,medium,0,826051,744,main_task,19.0,16.0,7.0,28.0
9121.0,269.0,8.0,29.0,2.0,low,2,2.0,2.0,1.0,425.0,fast,0,827482,746,main_task,19.0,16.0,1.0,29.0
9121.0,270.0,8.0,30.0,2.0,low,1,1.0,1.0,1.0,528.0,medium,0,829017,748,main_task,19.0,16.0,8.0,30.0
9121.0,271.0,10.0,1.0,3.0,low,1,0.0,0.0,1.0,614.0,medium,0,861898,752,main_task,1.0,17.0,1.0,1.0
9121.0,272.0,10.0,2.0,3.0,low,2,0.0,2.0,0.0,430.0,fast,0,863335,754,main_task,1.0,18.0,0.0,2.0
9121.0,273.0,10.0,3.0,3.0,low,3,0.0,1.0,0.0,393.0,fast,0,864733,756,main_task,1.0,13.0,0.0,3.0
9121.0,274.0,10.0,4.0,3.0,low,2,1.0,2.0,0.0,568.0,medium,0,866307,758,main_task,1.0,18.0,0.0,4.0
9121.0,275.0,10.0,5.0,3.0,low,1,0.0,0.0,1.0,505.0,medium,0,867816,760,main_task,1.0,17.0,2.0,5.0
9121.0,276.0,10.0,6.0,3.0,low,3,1.0,1.0,1.0,627.0,medium,0,869447,762,main_task,1.0,13.0,1.0,6.0
9121.0,277.0,10.0,7.0,3.0,low,3,1.0,1.0,1.0,560.0,medium,0,871011,764,main_task,1.0,13.0,2.0,7.0
9121.0,278.0,10.0,8.0,3.0,low,1,0.0,0.0,1.0,512.0,medium,0,872528,766,main_task,1.0,17.0,3.0,8.0
9121.0,279.0,10.0,9.0,3.0,low,2,2.0,2.0,1.0,799.0,medium,0,874334,768,main_task,1.0,18.0,1.0,9.0
9121.0,280.0,10.0,10.0,3.0,low,1,0.0,0.0,1.0,605.0,medium,0,875943,770,main_task,1.0,17.0,4.0,10.0
9121.0,281.0,10.0,11.0,3.0,low,3,1.0,1.0,1.0,474.0,fast,0,877423,772,main_task,1.0,13.0,3.0,11.0
9121.0,282.0,10.0,12.0,3.0,low,2,2.0,2.0,1.0,376.0,fast,0,878805,774,main_task,1.0,18.0,2.0,12.0
9121.0,283.0,10.0,13.0,3.0,low,2,2.0,2.0,1.0,637.0,medium,0,880448,776,main_task,1.0,18.0,3.0,13.0
9121.0,284.0,10.0,14.0,3.0,low,1,0.0,0.0,1.0,524.0,medium,0,881976,778,main_task,1.0,17.0,5.0,14.0
9121.0,285.0,10.0,15.0,3.0,low,1,0.0,0.0,1.0,567.0,medium,0,883549,780,main_task,1.0,17.0,6.0,15.0
9121.0,286.0,10.0,16.0,3.0,low,3,1.0,1.0,1.0,880.0,medium,0,885434,782,main_task,1.0,13.0,4.0,16.0
9121.0,287.0,10.0,17.0,3.0,low,1,0.0,0.0,1.0,775.0,medium,0,887215,784,main_task,1.0,17.0,7.0,17.0
9121.0,288.0,10.0,18.0,3.0,low,2,1.0,2.0,0.0,597.0,medium,0,888816,786,main_task,1.0,18.0,0.0,18.0
9121.0,289.0,10.0,19.0,3.0,low,3,1.0,1.0,1.0,1061.0,slow,0,890883,788,main_task,1.0,13.0,5.0,19.0
9121.0,290.0,10.0,20.0,3.0,low,2,2.0,2.0,1.0,813.0,medium,0,892703,790,main_task,1.0,18.0,1.0,20.0
9121.0,291.0,10.0,21.0,3.0,low,2,2.0,2.0,1.0,1150.0,slow,0,894860,792,main_task,1.0,18.0,2.0,21.0
9121.0,292.0,10.0,22.0,3.0,low,1,0.0,0.0,1.0,484.0,fast,0,896350,794,main_task,1.0,17.0,8.0,22.0
9121.0,293.0,10.0,23.0,3.0,low,3,1.0,1.0,1.0,683.0,medium,0,898039,796,main_task,1.0,13.0,6.0,23.0
9121.0,294.0,10.0,24.0,3.0,low,3,1.0,1.0,1.0,597.0,medium,0,899642,798,main_task,1.0,13.0,7.0,24.0
9121.0,295.0,10.0,25.0,3.0,low,1,0.0,0.0,1.0,574.0,medium,0,901223,800,main_task,1.0,17.0,9.0,25.0
9121.0,296.0,10.0,26.0,3.0,low,2,1.0,2.0,0.0,1402.0,slow,0,903629,802,main_task,1.0,18.0,0.0,26.0
9121.0,297.0,10.0,27.0,3.0,low,1,0.0,0.0,1.0,565.0,medium,0,905202,804,main_task,1.0,17.0,10.0,27.0
9121.0,298.0,10.0,28.0,3.0,low,3,1.0,1.0,1.0,558.0,medium,0,906765,806,main_task,1.0,13.0,8.0,28.0
9121.0,299.0,10.0,29.0,3.0,low,3,1.0,1.0,1.0,487.0,fast,0,908258,808,main_task,1.0,13.0,9.0,29.0
9121.0,300.0,10.0,30.0,3.0,low,2,2.0,2.0,1.0,452.0,fast,0,909715,810,main_task,1.0,18.0,1.0,30.0
9121.0,301.0,10.0,31.0,3.0,low,3,1.0,1.0,1.0,674.0,medium,0,911395,812,main_task,1.0,13.0,10.0,31.0
9121.0,302.0,10.0,32.0,3.0,low,1,0.0,0.0,1.0,499.0,fast,0,912900,814,main_task,1.0,17.0,11.0,32.0
9121.0,303.0,10.0,33.0,3.0,low,2,2.0,2.0,1.0,611.0,medium,0,914517,816,main_task,1.0,18.0,2.0,33.0
9121.0,304.0,10.0,34.0,3.0,low,3,1.0,1.0,1.0,608.0,medium,0,916131,818,main_task,1.0,13.0,11.0,34.0
9121.0,305.0,10.0,35.0,3.0,low,2,2.0,2.0,1.0,629.0,medium,0,917766,820,main_task,1.0,18.0,3.0,35.0
9121.0,306.0,10.0,36.0,3.0,low,1,0.0,0.0,1.0,538.0,medium,0,919309,822,main_task,1.0,17.0,12.0,36.0
9121.0,307.0,10.0,37.0,3.0,low,1,0.0,0.0,1.0,515.0,medium,0,920830,824,main_task,1.0,17.0,13.0,37.0
9121.0,308.0,10.0,38.0,3.0,low,2,2.0,2.0,1.0,596.0,medium,0,922433,826,main_task,1.0,18.0,4.0,38.0
9121.0,309.0,10.0,39.0,3.0,low,3,1.0,1.0,1.0,626.0,medium,0,924066,828,main_task,1.0,13.0,12.0,39.0
9121.0,310.0,10.0,40.0,3.0,low,3,1.0,1.0,1.0,502.0,medium,0,925573,830,main_task,1.0,13.0,13.0,40.0
9121.0,311.0,10.0,41.0,3.0,low,1,0.0,0.0,1.0,678.0,medium,0,927255,832,main_task,1.0,17.0,14.0,41.0
9121.0,312.0,10.0,42.0,3.0,low,2,2.0,2.0,1.0,876.0,medium,0,929135,834,main_task,1.0,18.0,5.0,42.0
9121.0,313.0,10.0,43.0,3.0,low,1,0.0,0.0,1.0,565.0,medium,0,930704,836,main_task,1.0,17.0,15.0,43.0
9121.0,314.0,10.0,44.0,3.0,low,2,2.0,2.0,1.0,858.0,medium,0,932565,838,main_task,1.0,18.0,6.0,44.0
9121.0,315.0,10.0,45.0,3.0,low,3,1.0,0.0,0.0,541.0,medium,0,934111,840,main_task,1.0,inf,0.0,45.0
9121.0,316.0,11.0,1.0,6.0,high,1,0.0,2.0,0.0,1160.0,slow,0,944973,844,main_task,10.0,13.0,0.0,1.0
9121.0,317.0,11.0,2.0,6.0,high,2,0.0,2.0,0.0,333.0,fast,0,946311,846,main_task,10.0,15.0,0.0,2.0
9121.0,318.0,11.0,3.0,6.0,high,3,0.0,2.0,0.0,455.0,fast,0,947773,848,main_task,10.0,13.0,0.0,3.0
9121.0,319.0,11.0,4.0,6.0,high,4,0.0,0.0,1.0,427.0,fast,0,949206,850,main_task,10.0,14.0,1.0,4.0
9121.0,320.0,11.0,5.0,6.0,high,5,0.0,1.0,0.0,556.0,medium,0,950767,852,main_task,10.0,14.0,0.0,5.0
9121.0,321.0,11.0,6.0,6.0,high,6,0.0,1.0,0.0,509.0,medium,0,952282,854,main_task,10.0,13.0,0.0,6.0
9121.0,322.0,11.0,7.0,6.0,high,5,1.0,1.0,1.0,513.0,medium,0,953800,856,main_task,10.0,14.0,1.0,7.0
9121.0,323.0,11.0,8.0,6.0,high,4,1.0,0.0,0.0,655.0,medium,0,955460,858,main_task,10.0,14.0,0.0,8.0
9121.0,324.0,11.0,9.0,6.0,high,2,1.0,2.0,0.0,509.0,medium,0,956975,860,main_task,10.0,15.0,0.0,9.0
9121.0,325.0,11.0,10.0,6.0,high,1,1.0,2.0,0.0,391.0,fast,0,958372,862,main_task,10.0,13.0,0.0,10.0
9121.0,326.0,11.0,11.0,6.0,high,3,1.0,2.0,0.0,466.0,fast,0,959844,864,main_task,10.0,13.0,0.0,11.0
9121.0,327.0,11.0,12.0,6.0,high,6,1.0,1.0,1.0,632.0,medium,0,961482,866,main_task,10.0,13.0,1.0,12.0
9121.0,328.0,11.0,13.0,6.0,high,1,2.0,2.0,1.0,1001.0,slow,0,963490,868,main_task,10.0,13.0,1.0,13.0
9121.0,329.0,11.0,14.0,6.0,high,2,2.0,2.0,1.0,780.0,medium,0,965276,870,main_task,10.0,15.0,1.0,14.0
9121.0,330.0,11.0,15.0,6.0,high,3,2.0,2.0,1.0,1365.0,slow,0,967648,872,main_task,10.0,13.0,1.0,15.0
9121.0,331.0,11.0,16.0,6.0,high,5,1.0,1.0,1.0,858.0,medium,0,969511,874,main_task,10.0,14.0,2.0,16.0
9121.0,332.0,11.0,17.0,6.0,high,5,1.0,1.0,1.0,552.0,medium,0,971070,876,main_task,10.0,14.0,3.0,17.0
9121.0,333.0,11.0,18.0,6.0,high,4,2.0,0.0,0.0,776.0,medium,0,972852,878,main_task,10.0,14.0,0.0,18.0
9121.0,334.0,11.0,19.0,6.0,high,6,1.0,1.0,1.0,741.0,medium,0,974601,880,main_task,10.0,13.0,2.0,19.0
9121.0,335.0,11.0,20.0,6.0,high,3,1.0,2.0,0.0,610.0,medium,0,976218,882,main_task,10.0,13.0,0.0,20.0
9121.0,336.0,11.0,21.0,6.0,high,1,2.0,2.0,1.0,620.0,medium,0,977843,884,main_task,10.0,13.0,2.0,21.0
9121.0,337.0,11.0,22.0,6.0,high,6,1.0,1.0,1.0,807.0,medium,0,979656,886,main_task,10.0,13.0,3.0,22.0
9121.0,338.0,11.0,23.0,6.0,high,1,2.0,2.0,1.0,656.0,medium,0,981318,888,main_task,10.0,13.0,3.0,23.0
9121.0,339.0,11.0,24.0,6.0,high,2,2.0,2.0,1.0,684.0,medium,0,983008,890,main_task,10.0,15.0,2.0,24.0
9121.0,340.0,11.0,25.0,6.0,high,4,0.0,0.0,1.0,492.0,fast,0,984507,892,main_task,10.0,14.0,1.0,25.0
9121.0,341.0,11.0,26.0,6.0,high,3,2.0,2.0,1.0,814.0,medium,0,986327,894,main_task,10.0,13.0,1.0,26.0
9121.0,342.0,11.0,27.0,6.0,high,3,2.0,2.0,1.0,694.0,medium,0,988026,896,main_task,10.0,13.0,2.0,27.0
9121.0,343.0,11.0,28.0,6.0,high,5,1.0,1.0,1.0,533.0,medium,0,989566,898,main_task,10.0,14.0,4.0,28.0
9121.0,344.0,11.0,29.0,6.0,high,4,0.0,0.0,1.0,882.0,medium,0,991454,900,main_task,10.0,14.0,2.0,29.0
9121.0,345.0,11.0,30.0,6.0,high,2,2.0,2.0,1.0,506.0,medium,0,992965,902,main_task,10.0,15.0,3.0,30.0
9121.0,346.0,11.0,31.0,6.0,high,6,1.0,1.0,1.0,799.0,medium,0,994770,904,main_task,10.0,13.0,4.0,31.0
9121.0,347.0,11.0,32.0,6.0,high,2,2.0,2.0,1.0,570.0,medium,0,996345,906,main_task,10.0,15.0,4.0,32.0
9121.0,348.0,11.0,33.0,6.0,high,1,2.0,2.0,1.0,650.0,medium,0,998003,908,main_task,10.0,13.0,4.0,33.0
9121.0,349.0,11.0,34.0,6.0,high,4,0.0,0.0,1.0,539.0,medium,0,999549,910,main_task,10.0,14.0,3.0,34.0
9121.0,350.0,11.0,35.0,6.0,high,2,2.0,2.0,1.0,500.0,fast,0,1001053,912,main_task,10.0,15.0,5.0,35.0
9121.0,351.0,11.0,36.0,6.0,high,5,1.0,1.0,1.0,784.0,medium,0,1002843,914,main_task,10.0,14.0,5.0,36.0
9121.0,352.0,11.0,37.0,6.0,high,6,1.0,1.0,1.0,525.0,medium,0,1004374,916,main_task,10.0,13.0,5.0,37.0
9121.0,353.0,11.0,38.0,6.0,high,3,2.0,2.0,1.0,677.0,medium,0,1006057,918,main_task,10.0,13.0,3.0,38.0
9121.0,354.0,11.0,39.0,6.0,high,6,1.0,1.0,1.0,1299.0,slow,0,1008362,920,main_task,10.0,13.0,6.0,39.0
9121.0,355.0,11.0,40.0,6.0,high,6,1.0,1.0,1.0,528.0,medium,0,1009895,922,main_task,10.0,13.0,7.0,40.0
9121.0,356.0,11.0,41.0,6.0,high,4,0.0,0.0,1.0,576.0,medium,0,1011477,924,main_task,10.0,14.0,4.0,41.0
9121.0,357.0,11.0,42.0,6.0,high,1,1.0,2.0,0.0,528.0,medium,0,1013010,926,main_task,10.0,13.0,0.0,42.0
9121.0,358.0,11.0,43.0,6.0,high,3,2.0,2.0,1.0,553.0,medium,0,1014569,928,main_task,10.0,13.0,4.0,43.0
9121.0,359.0,11.0,44.0,6.0,high,5,1.0,1.0,1.0,599.0,medium,0,1016175,930,main_task,10.0,14.0,6.0,44.0
9121.0,360.0,11.0,45.0,6.0,high,1,2.0,2.0,1.0,1328.0,slow,0,1018509,932,main_task,10.0,13.0,1.0,45.0
9121.0,361.0,11.0,46.0,6.0,high,2,2.0,2.0,1.0,478.0,fast,0,1019992,934,main_task,10.0,15.0,6.0,46.0
9121.0,362.0,11.0,47.0,6.0,high,3,2.0,2.0,1.0,573.0,medium,0,1021571,936,main_task,10.0,13.0,5.0,47.0
9121.0,363.0,11.0,48.0,6.0,high,4,0.0,0.0,1.0,538.0,medium,0,1023116,938,main_task,10.0,14.0,5.0,48.0
9121.0,364.0,11.0,49.0,6.0,high,4,0.0,0.0,1.0,725.0,medium,0,1024846,940,main_task,10.0,14.0,6.0,49.0
9121.0,365.0,11.0,50.0,6.0,high,6,1.0,1.0,1.0,747.0,medium,0,1026599,942,main_task,10.0,13.0,8.0,50.0
9121.0,366.0,11.0,51.0,6.0,high,1,2.0,2.0,1.0,525.0,medium,0,1028130,944,main_task,10.0,13.0,2.0,51.0
9121.0,367.0,11.0,52.0,6.0,high,5,1.0,1.0,1.0,669.0,medium,0,1029807,946,main_task,10.0,14.0,7.0,52.0
9121.0,368.0,11.0,53.0,6.0,high,5,1.0,1.0,1.0,1394.0,slow,0,1032207,948,main_task,10.0,14.0,8.0,53.0
9121.0,369.0,11.0,54.0,6.0,high,4,0.0,0.0,1.0,546.0,medium,0,1033759,950,main_task,10.0,14.0,7.0,54.0
9121.0,370.0,11.0,55.0,6.0,high,2,2.0,2.0,1.0,853.0,medium,0,1035618,952,main_task,10.0,15.0,7.0,55.0
9121.0,371.0,11.0,56.0,6.0,high,5,1.0,1.0,1.0,558.0,medium,0,1037182,954,main_task,10.0,14.0,9.0,56.0
9121.0,372.0,11.0,57.0,6.0,high,2,2.0,2.0,1.0,579.0,medium,0,1038767,956,main_task,10.0,15.0,8.0,57.0
9121.0,373.0,11.0,58.0,6.0,high,3,2.0,2.0,1.0,1197.0,slow,0,1040971,958,main_task,10.0,13.0,6.0,58.0
9121.0,374.0,11.0,59.0,6.0,high,6,1.0,1.0,1.0,725.0,medium,0,1042703,960,main_task,10.0,13.0,9.0,59.0
9121.0,375.0,11.0,60.0,6.0,high,5,1.0,1.0,1.0,459.0,fast,0,1044168,962,main_task,10.0,14.0,10.0,60.0
9121.0,376.0,11.0,61.0,6.0,high,1,2.0,2.0,1.0,464.0,fast,0,1045639,964,main_task,10.0,13.0,3.0,61.0
9121.0,377.0,11.0,62.0,6.0,high,6,0.0,1.0,0.0,531.0,medium,0,1047177,966,main_task,10.0,13.0,0.0,62.0
9121.0,378.0,11.0,63.0,6.0,high,3,2.0,2.0,1.0,611.0,medium,0,1048794,968,main_task,10.0,13.0,7.0,63.0
9121.0,379.0,11.0,64.0,6.0,high,2,2.0,2.0,1.0,546.0,medium,0,1050345,970,main_task,10.0,15.0,9.0,64.0
9121.0,380.0,11.0,65.0,6.0,high,4,0.0,0.0,1.0,568.0,medium,0,1051919,972,main_task,10.0,14.0,8.0,65.0
9121.0,381.0,11.0,66.0,6.0,high,1,2.0,2.0,1.0,534.0,medium,0,1053461,974,main_task,10.0,13.0,4.0,66.0
9121.0,382.0,11.0,67.0,6.0,high,4,0.0,0.0,1.0,632.0,medium,0,1055100,976,main_task,10.0,14.0,9.0,67.0
9121.0,383.0,11.0,68.0,6.0,high,6,1.0,1.0,1.0,806.0,medium,0,1056912,978,main_task,10.0,13.0,1.0,68.0
9121.0,384.0,11.0,69.0,6.0,high,3,2.0,2.0,1.0,607.0,medium,0,1058524,980,main_task,10.0,13.0,8.0,69.0
9121.0,385.0,11.0,70.0,6.0,high,5,1.0,1.0,1.0,556.0,medium,0,1060086,982,main_task,10.0,14.0,11.0,70.0
9121.0,386.0,11.0,71.0,6.0,high,4,0.0,0.0,1.0,601.0,medium,0,1061693,984,main_task,10.0,14.0,10.0,71.0
9121.0,387.0,11.0,72.0,6.0,high,2,2.0,2.0,1.0,552.0,medium,0,1063250,986,main_task,10.0,15.0,10.0,72.0
9121.0,388.0,11.0,73.0,6.0,high,2,2.0,2.0,1.0,619.0,medium,0,1064877,988,main_task,10.0,15.0,11.0,73.0
9121.0,389.0,11.0,74.0,6.0,high,1,2.0,2.0,1.0,526.0,medium,0,1066409,990,main_task,10.0,13.0,5.0,74.0
9121.0,390.0,11.0,75.0,6.0,high,1,2.0,2.0,1.0,688.0,medium,0,1068103,992,main_task,10.0,13.0,6.0,75.0
9121.0,391.0,11.0,76.0,6.0,high,3,2.0,2.0,1.0,515.0,medium,0,1069625,994,main_task,10.0,13.0,9.0,76.0
9121.0,392.0,11.0,77.0,6.0,high,6,1.0,1.0,1.0,641.0,medium,0,1071271,996,main_task,10.0,13.0,2.0,77.0
9121.0,393.0,11.0,78.0,6.0,high,1,2.0,2.0,1.0,581.0,medium,0,1072859,998,main_task,10.0,13.0,7.0,78.0
9121.0,394.0,11.0,79.0,6.0,high,5,1.0,1.0,1.0,558.0,medium,0,1074423,1000,main_task,10.0,14.0,12.0,79.0
9121.0,395.0,11.0,80.0,6.0,high,3,2.0,2.0,1.0,598.0,medium,0,1076027,1002,main_task,10.0,13.0,10.0,80.0
9121.0,396.0,11.0,81.0,6.0,high,4,0.0,0.0,1.0,658.0,medium,0,1077691,1004,main_task,10.0,14.0,11.0,81.0
9121.0,397.0,11.0,82.0,6.0,high,6,1.0,1.0,1.0,631.0,medium,0,1079328,1006,main_task,10.0,13.0,3.0,82.0
9121.0,398.0,11.0,83.0,6.0,high,4,0.0,0.0,1.0,612.0,medium,0,1080946,1008,main_task,10.0,14.0,12.0,83.0
9121.0,399.0,11.0,84.0,6.0,high,2,2.0,2.0,1.0,948.0,medium,0,1082900,1010,main_task,10.0,15.0,12.0,84.0
9121.0,400.0,11.0,85.0,6.0,high,5,1.0,1.0,1.0,676.0,medium,0,1084582,1012,main_task,10.0,14.0,13.0,85.0
9121.0,401.0,11.0,86.0,6.0,high,5,1.0,1.0,1.0,529.0,medium,0,1086117,1014,main_task,10.0,14.0,14.0,86.0
9121.0,402.0,11.0,87.0,6.0,high,2,2.0,2.0,1.0,624.0,medium,0,1087747,1016,main_task,10.0,15.0,13.0,87.0
9121.0,403.0,11.0,88.0,6.0,high,3,1.0,2.0,0.0,522.0,medium,0,1089275,1018,main_task,10.0,13.0,0.0,88.0
9121.0,404.0,11.0,89.0,6.0,high,1,2.0,2.0,1.0,467.0,fast,0,1090749,1020,main_task,10.0,13.0,8.0,89.0
9121.0,405.0,11.0,90.0,6.0,high,5,1.0,2.0,0.0,645.0,medium,0,1092400,1022,main_task,10.0,inf,0.0,90.0
9121.0,406.0,12.0,1.0,5.0,high,1,0.0,1.0,0.0,1057.0,slow,0,1096938,1026,main_task,11.0,12.0,0.0,1.0
9121.0,407.0,12.0,2.0,5.0,high,2,0.0,2.0,0.0,366.0,fast,0,1098310,1028,main_task,11.0,13.0,0.0,2.0
9121.0,408.0,12.0,3.0,5.0,high,3,0.0,1.0,0.0,367.0,fast,0,1099683,1030,main_task,11.0,15.0,0.0,3.0
9121.0,409.0,12.0,4.0,5.0,high,4,0.0,0.0,1.0,364.0,fast,0,1101053,1032,main_task,11.0,14.0,1.0,4.0
9121.0,410.0,12.0,5.0,5.0,high,5,0.0,1.0,0.0,363.0,fast,0,1102423,1034,main_task,11.0,15.0,0.0,5.0
9121.0,411.0,12.0,6.0,5.0,high,4,0.0,0.0,1.0,562.0,medium,0,1103992,1036,main_task,11.0,14.0,2.0,6.0
9121.0,412.0,12.0,7.0,5.0,high,2,1.0,2.0,0.0,385.0,fast,0,1105383,1038,main_task,11.0,13.0,0.0,7.0
9121.0,413.0,12.0,8.0,5.0,high,1,1.0,1.0,1.0,387.0,fast,0,1106775,1040,main_task,11.0,12.0,1.0,8.0
9121.0,414.0,12.0,9.0,5.0,high,5,1.0,1.0,1.0,407.0,fast,0,1108186,1042,main_task,11.0,15.0,1.0,9.0
9121.0,415.0,12.0,10.0,5.0,high,3,1.0,1.0,1.0,372.0,fast,0,1109565,1044,main_task,11.0,15.0,1.0,10.0
9121.0,416.0,12.0,11.0,5.0,high,3,1.0,1.0,1.0,641.0,medium,0,1111214,1046,main_task,11.0,15.0,2.0,11.0
9121.0,417.0,12.0,12.0,5.0,high,5,0.0,1.0,0.0,704.0,medium,0,1112924,1048,main_task,11.0,15.0,0.0,12.0
9121.0,418.0,12.0,13.0,5.0,high,2,2.0,2.0,1.0,1162.0,slow,0,1115091,1050,main_task,11.0,13.0,1.0,13.0
9121.0,419.0,12.0,14.0,5.0,high,4,0.0,0.0,1.0,465.0,fast,0,1116562,1052,main_task,11.0,14.0,3.0,14.0
9121.0,420.0,12.0,15.0,5.0,high,3,1.0,1.0,1.0,553.0,medium,0,1118122,1054,main_task,11.0,15.0,3.0,15.0
9121.0,421.0,12.0,16.0,5.0,high,1,1.0,1.0,1.0,815.0,medium,0,1119942,1056,main_task,11.0,12.0,2.0,16.0
9121.0,422.0,12.0,17.0,5.0,high,4,0.0,0.0,1.0,571.0,medium,0,1121520,1058,main_task,11.0,14.0,4.0,17.0
9121.0,423.0,12.0,18.0,5.0,high,5,1.0,1.0,1.0,574.0,medium,0,1123099,1060,main_task,11.0,15.0,1.0,18.0
9121.0,424.0,12.0,19.0,5.0,high,4,0.0,0.0,1.0,571.0,medium,0,1124677,1062,main_task,11.0,14.0,5.0,19.0
9121.0,425.0,12.0,20.0,5.0,high,2,2.0,2.0,1.0,440.0,fast,0,1126122,1064,main_task,11.0,13.0,2.0,20.0
9121.0,426.0,12.0,21.0,5.0,high,1,1.0,1.0,1.0,695.0,medium,0,1127821,1066,main_task,11.0,12.0,3.0,21.0
9121.0,427.0,12.0,22.0,5.0,high,1,1.0,1.0,1.0,415.0,fast,0,1129243,1068,main_task,11.0,12.0,4.0,22.0
9121.0,428.0,12.0,23.0,5.0,high,5,1.0,1.0,1.0,1069.0,slow,0,1131318,1070,main_task,11.0,15.0,2.0,23.0
9121.0,429.0,12.0,24.0,5.0,high,3,1.0,1.0,1.0,652.0,medium,0,1132976,1072,main_task,11.0,15.0,4.0,24.0
9121.0,430.0,12.0,25.0,5.0,high,5,1.0,1.0,1.0,1132.0,slow,0,1135115,1074,main_task,11.0,15.0,3.0,25.0
9121.0,431.0,12.0,26.0,5.0,high,2,2.0,2.0,1.0,585.0,medium,0,1136706,1076,main_task,11.0,13.0,3.0,26.0
9121.0,432.0,12.0,27.0,5.0,high,2,2.0,2.0,1.0,475.0,fast,0,1138188,1078,main_task,11.0,13.0,4.0,27.0
9121.0,433.0,12.0,28.0,5.0,high,4,0.0,0.0,1.0,558.0,medium,0,1139753,1080,main_task,11.0,14.0,6.0,28.0
9121.0,434.0,12.0,29.0,5.0,high,5,2.0,1.0,0.0,1032.0,slow,0,1141791,1082,main_task,11.0,15.0,0.0,29.0
9121.0,435.0,12.0,30.0,5.0,high,1,1.0,1.0,1.0,676.0,medium,0,1143473,1084,main_task,11.0,12.0,5.0,30.0
9121.0,436.0,12.0,31.0,5.0,high,3,1.0,1.0,1.0,792.0,medium,0,1145270,1086,main_task,11.0,15.0,5.0,31.0
9121.0,437.0,12.0,32.0,5.0,high,5,1.0,1.0,1.0,686.0,medium,0,1146962,1088,main_task,11.0,15.0,1.0,32.0
9121.0,438.0,12.0,33.0,5.0,high,2,1.0,2.0,0.0,606.0,medium,0,1148574,1090,main_task,11.0,13.0,0.0,33.0
9121.0,439.0,12.0,34.0,5.0,high,1,1.0,1.0,1.0,514.0,medium,0,1150094,1092,main_task,11.0,12.0,6.0,34.0
9121.0,440.0,12.0,35.0,5.0,high,2,1.0,2.0,0.0,458.0,fast,0,1151557,1094,main_task,11.0,13.0,0.0,35.0
9121.0,441.0,12.0,36.0,5.0,high,4,0.0,0.0,1.0,589.0,medium,0,1153152,1096,main_task,11.0,14.0,7.0,36.0
9121.0,442.0,12.0,37.0,5.0,high,4,0.0,0.0,1.0,832.0,medium,0,1154989,1098,main_task,11.0,14.0,8.0,37.0
9121.0,443.0,12.0,38.0,5.0,high,3,1.0,1.0,1.0,525.0,medium,0,1156520,1100,main_task,11.0,15.0,6.0,38.0
9121.0,444.0,12.0,39.0,5.0,high,1,1.0,1.0,1.0,613.0,medium,0,1158138,1102,main_task,11.0,12.0,7.0,39.0
9121.0,445.0,12.0,40.0,5.0,high,4,0.0,0.0,1.0,870.0,medium,0,1160014,1104,main_task,11.0,14.0,9.0,40.0
9121.0,446.0,12.0,41.0,5.0,high,5,2.0,1.0,0.0,546.0,medium,0,1161566,1106,main_task,11.0,15.0,0.0,41.0
9121.0,447.0,12.0,42.0,5.0,high,3,1.0,1.0,1.0,555.0,medium,0,1163127,1108,main_task,11.0,15.0,7.0,42.0
9121.0,448.0,12.0,43.0,5.0,high,3,1.0,1.0,1.0,507.0,medium,0,1164640,1110,main_task,11.0,15.0,8.0,43.0
9121.0,449.0,12.0,44.0,5.0,high,2,2.0,2.0,1.0,667.0,medium,0,1166313,1112,main_task,11.0,13.0,1.0,44.0
9121.0,450.0,12.0,45.0,5.0,high,1,1.0,1.0,1.0,564.0,medium,0,1167883,1114,main_task,11.0,12.0,8.0,45.0
9121.0,451.0,12.0,46.0,5.0,high,2,2.0,2.0,1.0,682.0,medium,0,1169571,1116,main_task,11.0,13.0,2.0,46.0
9121.0,452.0,12.0,47.0,5.0,high,1,1.0,1.0,1.0,563.0,medium,0,1171140,1118,main_task,11.0,12.0,9.0,47.0
9121.0,453.0,12.0,48.0,5.0,high,4,0.0,0.0,1.0,457.0,fast,0,1172603,1120,main_task,11.0,14.0,10.0,48.0
9121.0,454.0,12.0,49.0,5.0,high,2,2.0,2.0,1.0,375.0,fast,0,1173984,1122,main_task,11.0,13.0,3.0,49.0
9121.0,455.0,12.0,50.0,5.0,high,5,1.0,1.0,1.0,510.0,medium,0,1175500,1124,main_task,11.0,15.0,1.0,50.0
9121.0,456.0,12.0,51.0,5.0,high,3,1.0,1.0,1.0,493.0,fast,0,1176998,1126,main_task,11.0,15.0,9.0,51.0
9121.0,457.0,12.0,52.0,5.0,high,1,1.0,1.0,1.0,531.0,medium,0,1178535,1128,main_task,11.0,12.0,10.0,52.0
9121.0,458.0,12.0,53.0,5.0,high,5,1.0,1.0,1.0,668.0,medium,0,1180210,1130,main_task,11.0,15.0,2.0,53.0
9121.0,459.0,12.0,54.0,5.0,high,4,0.0,0.0,1.0,913.0,medium,0,1182130,1132,main_task,11.0,14.0,11.0,54.0
9121.0,460.0,12.0,55.0,5.0,high,3,1.0,1.0,1.0,581.0,medium,0,1183717,1134,main_task,11.0,15.0,10.0,55.0
9121.0,461.0,12.0,56.0,5.0,high,3,1.0,1.0,1.0,1045.0,slow,0,1185767,1136,main_task,11.0,15.0,11.0,56.0
9121.0,462.0,12.0,57.0,5.0,high,1,1.0,1.0,1.0,494.0,fast,0,1187266,1138,main_task,11.0,12.0,11.0,57.0
9121.0,463.0,12.0,58.0,5.0,high,2,2.0,2.0,1.0,591.0,medium,0,1188864,1140,main_task,11.0,13.0,4.0,58.0
9121.0,464.0,12.0,59.0,5.0,high,4,0.0,0.0,1.0,1510.0,slow,0,1191380,1142,main_task,11.0,14.0,12.0,59.0
9121.0,465.0,12.0,60.0,5.0,high,5,1.0,1.0,1.0,632.0,medium,0,1193017,1144,main_task,11.0,15.0,3.0,60.0
9121.0,466.0,12.0,61.0,5.0,high,5,1.0,1.0,1.0,461.0,fast,0,1194485,1146,main_task,11.0,15.0,4.0,61.0
9121.0,467.0,12.0,62.0,5.0,high,4,0.0,0.0,1.0,607.0,medium,0,1196098,1148,main_task,11.0,14.0,13.0,62.0
9121.0,468.0,12.0,63.0,5.0,high,1,1.0,1.0,1.0,507.0,medium,0,1197610,1150,main_task,11.0,12.0,12.0,63.0
9121.0,469.0,12.0,64.0,5.0,high,3,1.0,1.0,1.0,680.0,medium,0,1199297,1152,main_task,11.0,15.0,12.0,64.0
9121.0,470.0,12.0,65.0,5.0,high,2,2.0,2.0,1.0,508.0,medium,0,1200811,1154,main_task,11.0,13.0,5.0,65.0
9121.0,471.0,12.0,66.0,5.0,high,3,1.0,1.0,1.0,564.0,medium,0,1202380,1156,main_task,11.0,15.0,13.0,66.0
9121.0,472.0,12.0,67.0,5.0,high,1,1.0,0.0,0.0,547.0,medium,0,1203935,1158,main_task,11.0,inf,0.0,67.0
9121.0,473.0,12.0,68.0,5.0,high,2,2.0,2.0,1.0,562.0,medium,0,1205503,1160,main_task,11.0,13.0,6.0,68.0
9121.0,474.0,12.0,69.0,5.0,high,4,0.0,0.0,1.0,491.0,fast,0,1206999,1162,main_task,11.0,14.0,14.0,69.0
9121.0,475.0,12.0,70.0,5.0,high,5,1.0,1.0,1.0,762.0,medium,0,1208768,1164,main_task,11.0,15.0,5.0,70.0
9121.0,476.0,12.0,71.0,5.0,high,3,1.0,1.0,1.0,545.0,medium,0,1210319,1166,main_task,11.0,15.0,14.0,71.0
9121.0,477.0,12.0,72.0,5.0,high,5,1.0,1.0,1.0,514.0,medium,0,1211839,1168,main_task,11.0,15.0,6.0,72.0
9121.0,478.0,12.0,73.0,5.0,high,1,0.0,0.0,1.0,482.0,fast,0,1213327,1170,main_task,11.0,inf,1.0,73.0
9121.0,479.0,12.0,74.0,5.0,high,1,0.0,0.0,1.0,433.0,fast,0,1214766,1172,main_task,11.0,inf,2.0,74.0
9121.0,480.0,12.0,75.0,5.0,high,3,1.0,1.0,1.0,598.0,medium,0,1216371,1174,main_task,11.0,15.0,15.0,75.0
9121.0,481.0,13.0,1.0,2.0,low,1,0.0,2.0,0.0,320.0,fast,0,1219454,1178,main_task,23.0,16.0,0.0,1.0
9121.0,482.0,13.0,2.0,2.0,low,2,0.0,0.0,1.0,479.0,fast,0,1220939,1180,main_task,23.0,15.0,1.0,2.0
9121.0,483.0,13.0,3.0,2.0,low,1,1.0,2.0,0.0,374.0,fast,0,1222319,1182,main_task,23.0,16.0,0.0,3.0
9121.0,484.0,13.0,4.0,2.0,low,2,0.0,0.0,1.0,456.0,fast,0,1223781,1184,main_task,23.0,15.0,2.0,4.0
9121.0,485.0,13.0,5.0,2.0,low,2,0.0,0.0,1.0,472.0,fast,0,1225257,1186,main_task,23.0,15.0,3.0,5.0
9121.0,486.0,13.0,6.0,2.0,low,1,2.0,2.0,1.0,354.0,fast,0,1226618,1188,main_task,23.0,16.0,1.0,6.0
9121.0,487.0,13.0,7.0,2.0,low,1,2.0,2.0,1.0,555.0,medium,0,1228178,1190,main_task,23.0,16.0,2.0,7.0
9121.0,488.0,13.0,8.0,2.0,low,2,0.0,0.0,1.0,552.0,medium,0,1229736,1192,main_task,23.0,15.0,4.0,8.0
9121.0,489.0,13.0,9.0,2.0,low,2,0.0,0.0,1.0,505.0,medium,0,1231246,1194,main_task,23.0,15.0,5.0,9.0
9121.0,490.0,13.0,10.0,2.0,low,1,2.0,2.0,1.0,442.0,fast,0,1232695,1196,main_task,23.0,16.0,3.0,10.0
9121.0,491.0,13.0,11.0,2.0,low,2,0.0,0.0,1.0,625.0,medium,0,1234367,1198,main_task,23.0,15.0,6.0,11.0
9121.0,492.0,13.0,12.0,2.0,low,1,2.0,2.0,1.0,494.0,fast,0,1235866,1200,main_task,23.0,16.0,4.0,12.0
9121.0,493.0,13.0,13.0,2.0,low,1,2.0,2.0,1.0,450.0,fast,0,1237320,1202,main_task,23.0,16.0,5.0,13.0
9121.0,494.0,13.0,14.0,2.0,low,2,0.0,0.0,1.0,700.0,medium,0,1239024,1204,main_task,23.0,15.0,7.0,14.0
9121.0,495.0,13.0,15.0,2.0,low,2,0.0,0.0,1.0,510.0,medium,0,1240538,1206,main_task,23.0,15.0,8.0,15.0
9121.0,496.0,13.0,16.0,2.0,low,1,2.0,2.0,1.0,284.0,fast,0,1241825,1208,main_task,23.0,16.0,6.0,16.0
9121.0,497.0,13.0,17.0,2.0,low,2,0.0,0.0,1.0,473.0,fast,0,1243303,1210,main_task,23.0,15.0,9.0,17.0
9121.0,498.0,13.0,18.0,2.0,low,1,2.0,2.0,1.0,511.0,medium,0,1244820,1212,main_task,23.0,16.0,7.0,18.0
9121.0,499.0,13.0,19.0,2.0,low,1,2.0,2.0,1.0,511.0,medium,0,1246337,1214,main_task,23.0,16.0,8.0,19.0
9121.0,500.0,13.0,20.0,2.0,low,2,0.0,0.0,1.0,539.0,medium,0,1247883,1216,main_task,23.0,15.0,10.0,20.0
9121.0,501.0,13.0,21.0,2.0,low,2,0.0,0.0,1.0,656.0,medium,0,1249546,1218,main_task,23.0,15.0,11.0,21.0
9121.0,502.0,13.0,22.0,2.0,low,1,2.0,2.0,1.0,390.0,fast,0,1250942,1220,main_task,23.0,16.0,9.0,22.0
9121.0,503.0,13.0,23.0,2.0,low,2,0.0,0.0,1.0,540.0,medium,0,1252488,1222,main_task,23.0,15.0,12.0,23.0
9121.0,504.0,13.0,24.0,2.0,low,1,2.0,2.0,1.0,651.0,medium,0,1254145,1224,main_task,23.0,16.0,10.0,24.0
9121.0,505.0,13.0,25.0,2.0,low,1,2.0,2.0,1.0,365.0,fast,0,1255515,1226,main_task,23.0,16.0,11.0,25.0
9121.0,506.0,13.0,26.0,2.0,low,2,0.0,0.0,1.0,489.0,fast,0,1257010,1228,main_task,23.0,15.0,13.0,26.0
9121.0,507.0,13.0,27.0,2.0,low,2,0.0,0.0,1.0,482.0,fast,0,1258498,1230,main_task,23.0,15.0,14.0,27.0
9121.0,508.0,13.0,28.0,2.0,low,1,2.0,2.0,1.0,529.0,medium,0,1260034,1232,main_task,23.0,16.0,12.0,28.0
9121.0,509.0,13.0,29.0,2.0,low,2,0.0,0.0,1.0,484.0,fast,0,1261525,1234,main_task,23.0,15.0,15.0,29.0
9121.0,510.0,13.0,30.0,2.0,low,1,2.0,2.0,1.0,503.0,medium,0,1263034,1236,main_task,23.0,16.0,13.0,30.0
9121.0,511.0,14.0,1.0,2.0,low,1,0.0,1.0,0.0,352.0,fast,0,1266681,1240,main_task,6.0,12.0,0.0,1.0
9121.0,512.0,14.0,2.0,2.0,low,2,0.0,2.0,0.0,313.0,fast,0,1268001,1242,main_task,6.0,12.0,0.0,2.0
9121.0,513.0,14.0,3.0,2.0,low,2,1.0,2.0,0.0,285.0,fast,0,1269292,1244,main_task,6.0,12.0,0.0,3.0
9121.0,514.0,14.0,4.0,2.0,low,1,1.0,1.0,1.0,367.0,fast,0,1270665,1246,main_task,6.0,12.0,1.0,4.0
9121.0,515.0,14.0,5.0,2.0,low,2,2.0,2.0,1.0,345.0,fast,0,1272016,1248,main_task,6.0,12.0,1.0,5.0
9121.0,516.0,14.0,6.0,2.0,low,1,1.0,1.0,1.0,413.0,fast,0,1273435,1250,main_task,6.0,12.0,2.0,6.0
9121.0,517.0,14.0,7.0,2.0,low,1,1.0,1.0,1.0,787.0,medium,0,1275228,1252,main_task,6.0,12.0,3.0,7.0
9121.0,518.0,14.0,8.0,2.0,low,2,2.0,2.0,1.0,471.0,fast,0,1276706,1254,main_task,6.0,12.0,2.0,8.0
9121.0,519.0,14.0,9.0,2.0,low,1,1.0,1.0,1.0,353.0,fast,0,1278065,1256,main_task,6.0,12.0,4.0,9.0
9121.0,520.0,14.0,10.0,2.0,low,1,1.0,1.0,1.0,510.0,medium,0,1279581,1258,main_task,6.0,12.0,5.0,10.0
9121.0,521.0,14.0,11.0,2.0,low,2,2.0,2.0,1.0,398.0,fast,0,1280985,1260,main_task,6.0,12.0,3.0,11.0
9121.0,522.0,14.0,12.0,2.0,low,2,2.0,2.0,1.0,723.0,medium,0,1282714,1262,main_task,6.0,12.0,4.0,12.0
9121.0,523.0,14.0,13.0,2.0,low,1,1.0,1.0,1.0,446.0,fast,0,1284166,1264,main_task,6.0,12.0,6.0,13.0
9121.0,524.0,14.0,14.0,2.0,low,2,2.0,2.0,1.0,513.0,medium,0,1285685,1266,main_task,6.0,12.0,5.0,14.0
9121.0,525.0,14.0,15.0,2.0,low,2,2.0,2.0,1.0,448.0,fast,0,1287139,1268,main_task,6.0,12.0,6.0,15.0
9121.0,526.0,14.0,16.0,2.0,low,1,1.0,1.0,1.0,462.0,fast,0,1288608,1270,main_task,6.0,12.0,7.0,16.0
9121.0,527.0,14.0,17.0,2.0,low,2,2.0,2.0,1.0,572.0,medium,0,1290185,1272,main_task,6.0,12.0,7.0,17.0
9121.0,528.0,14.0,18.0,2.0,low,1,1.0,1.0,1.0,677.0,medium,0,1291869,1274,main_task,6.0,12.0,8.0,18.0
9121.0,529.0,14.0,19.0,2.0,low,1,1.0,1.0,1.0,697.0,medium,0,1293572,1276,main_task,6.0,12.0,9.0,19.0
9121.0,530.0,14.0,20.0,2.0,low,2,2.0,2.0,1.0,373.0,fast,0,1294952,1278,main_task,6.0,12.0,8.0,20.0
9121.0,531.0,14.0,21.0,2.0,low,1,1.0,1.0,1.0,691.0,medium,0,1296650,1280,main_task,6.0,12.0,10.0,21.0
9121.0,532.0,14.0,22.0,2.0,low,2,2.0,2.0,1.0,744.0,medium,0,1298402,1282,main_task,6.0,12.0,9.0,22.0
9121.0,533.0,14.0,23.0,2.0,low,2,2.0,2.0,1.0,612.0,medium,0,1300020,1284,main_task,6.0,12.0,10.0,23.0
9121.0,534.0,14.0,24.0,2.0,low,1,1.0,1.0,1.0,431.0,fast,0,1301455,1286,main_task,6.0,12.0,11.0,24.0
9121.0,535.0,14.0,25.0,2.0,low,1,1.0,1.0,1.0,751.0,medium,0,1303211,1288,main_task,6.0,12.0,12.0,25.0
9121.0,536.0,14.0,26.0,2.0,low,2,2.0,2.0,1.0,387.0,fast,0,1304604,1290,main_task,6.0,12.0,11.0,26.0
9121.0,537.0,14.0,27.0,2.0,low,1,1.0,0.0,0.0,817.0,medium,0,1306427,1292,main_task,6.0,inf,0.0,27.0
9121.0,538.0,14.0,28.0,2.0,low,1,1.0,0.0,0.0,724.0,medium,0,1308156,1294,main_task,6.0,inf,0.0,28.0
9121.0,539.0,14.0,29.0,2.0,low,2,2.0,2.0,1.0,375.0,fast,0,1309537,1296,main_task,6.0,12.0,12.0,29.0
9121.0,540.0,14.0,30.0,2.0,low,2,2.0,1.0,0.0,560.0,medium,0,1311103,1298,main_task,6.0,inf,0.0,30.0
9121.0,541.0,15.0,1.0,5.0,high,1,0.0,2.0,0.0,323.0,fast,0,1314910,1302,main_task,5.0,15.0,0.0,1.0
9121.0,542.0,15.0,2.0,5.0,high,2,0.0,2.0,0.0,249.0,fast,0,1316166,1304,main_task,5.0,17.0,0.0,2.0
9121.0,543.0,15.0,3.0,5.0,high,3,0.0,1.0,0.0,298.0,fast,0,1317470,1306,main_task,5.0,15.0,0.0,3.0
9121.0,544.0,15.0,4.0,5.0,high,4,0.0,1.0,0.0,276.0,fast,0,1318751,1308,main_task,5.0,18.0,0.0,4.0
9121.0,545.0,15.0,5.0,5.0,high,5,0.0,1.0,0.0,269.0,fast,0,1320026,1310,main_task,5.0,17.0,0.0,5.0
9121.0,546.0,15.0,6.0,5.0,high,5,1.0,1.0,1.0,338.0,fast,0,1321369,1312,main_task,5.0,17.0,1.0,6.0
9121.0,547.0,15.0,7.0,5.0,high,1,1.0,2.0,0.0,463.0,fast,0,1322839,1314,main_task,5.0,15.0,0.0,7.0
9121.0,548.0,15.0,8.0,5.0,high,3,1.0,1.0,1.0,468.0,fast,0,1324313,1316,main_task,5.0,15.0,1.0,8.0
9121.0,549.0,15.0,9.0,5.0,high,4,1.0,1.0,1.0,418.0,fast,0,1325738,1318,main_task,5.0,18.0,1.0,9.0
9121.0,550.0,15.0,10.0,5.0,high,2,1.0,2.0,0.0,545.0,medium,0,1327289,1320,main_task,5.0,17.0,0.0,10.0
9121.0,551.0,15.0,11.0,5.0,high,1,2.0,2.0,1.0,1034.0,slow,0,1329329,1322,main_task,5.0,15.0,1.0,11.0
9121.0,552.0,15.0,12.0,5.0,high,2,2.0,2.0,1.0,623.0,medium,0,1330958,1324,main_task,5.0,17.0,1.0,12.0
9121.0,553.0,15.0,13.0,5.0,high,5,1.0,1.0,1.0,471.0,fast,0,1332436,1326,main_task,5.0,17.0,2.0,13.0
9121.0,554.0,15.0,14.0,5.0,high,3,1.0,1.0,1.0,609.0,medium,0,1334049,1328,main_task,5.0,15.0,2.0,14.0
9121.0,555.0,15.0,15.0,5.0,high,2,2.0,2.0,1.0,654.0,medium,0,1335710,1330,main_task,5.0,17.0,2.0,15.0
9121.0,556.0,15.0,16.0,5.0,high,4,1.0,1.0,1.0,443.0,fast,0,1337157,1332,main_task,5.0,18.0,2.0,16.0
9121.0,557.0,15.0,17.0,5.0,high,3,1.0,1.0,1.0,697.0,medium,0,1338860,1334,main_task,5.0,15.0,3.0,17.0
9121.0,558.0,15.0,18.0,5.0,high,4,2.0,1.0,0.0,918.0,medium,0,1340785,1336,main_task,5.0,18.0,0.0,18.0
9121.0,559.0,15.0,19.0,5.0,high,1,2.0,2.0,1.0,581.0,medium,0,1342374,1338,main_task,5.0,15.0,2.0,19.0
9121.0,560.0,15.0,20.0,5.0,high,5,1.0,1.0,1.0,886.0,medium,0,1344266,1340,main_task,5.0,17.0,3.0,20.0
9121.0,561.0,15.0,21.0,5.0,high,5,1.0,1.0,1.0,634.0,medium,0,1345907,1342,main_task,5.0,17.0,4.0,21.0
9121.0,562.0,15.0,22.0,5.0,high,4,1.0,1.0,1.0,482.0,fast,0,1347395,1344,main_task,5.0,18.0,1.0,22.0
9121.0,563.0,15.0,23.0,5.0,high,2,2.0,2.0,1.0,411.0,fast,0,1348812,1346,main_task,5.0,17.0,3.0,23.0
9121.0,564.0,15.0,24.0,5.0,high,1,2.0,2.0,1.0,501.0,medium,0,1350319,1348,main_task,5.0,15.0,3.0,24.0
9121.0,565.0,15.0,25.0,5.0,high,4,2.0,1.0,0.0,527.0,medium,0,1351853,1350,main_task,5.0,18.0,0.0,25.0
9121.0,566.0,15.0,26.0,5.0,high,3,1.0,1.0,1.0,1430.0,slow,0,1354289,1352,main_task,5.0,15.0,4.0,26.0
9121.0,567.0,15.0,27.0,5.0,high,5,1.0,1.0,1.0,803.0,medium,0,1356099,1354,main_task,5.0,17.0,5.0,27.0
9121.0,568.0,15.0,28.0,5.0,high,3,1.0,1.0,1.0,765.0,medium,0,1357871,1356,main_task,5.0,15.0,5.0,28.0
9121.0,569.0,15.0,29.0,5.0,high,3,1.0,1.0,1.0,598.0,medium,0,1359474,1358,main_task,5.0,15.0,6.0,29.0
9121.0,570.0,15.0,30.0,5.0,high,1,2.0,2.0,1.0,761.0,medium,0,1361239,1360,main_task,5.0,15.0,4.0,30.0
9121.0,571.0,15.0,31.0,5.0,high,2,2.0,2.0,1.0,555.0,medium,0,1362800,1362,main_task,5.0,17.0,4.0,31.0
9121.0,572.0,15.0,32.0,5.0,high,2,2.0,2.0,1.0,927.0,medium,0,1364734,1364,main_task,5.0,17.0,5.0,32.0
9121.0,573.0,15.0,33.0,5.0,high,1,2.0,2.0,1.0,408.0,fast,0,1366149,1366,main_task,5.0,15.0,5.0,33.0
9121.0,574.0,15.0,34.0,5.0,high,4,1.0,1.0,1.0,470.0,fast,0,1367626,1368,main_task,5.0,18.0,1.0,34.0
9121.0,575.0,15.0,35.0,5.0,high,5,1.0,1.0,1.0,680.0,medium,0,1369313,1370,main_task,5.0,17.0,6.0,35.0
9121.0,576.0,15.0,36.0,5.0,high,2,2.0,2.0,1.0,430.0,fast,0,1370750,1372,main_task,5.0,17.0,6.0,36.0
9121.0,577.0,15.0,37.0,5.0,high,1,2.0,2.0,1.0,474.0,fast,0,1372231,1374,main_task,5.0,15.0,6.0,37.0
9121.0,578.0,15.0,38.0,5.0,high,3,2.0,1.0,0.0,538.0,medium,0,1373776,1376,main_task,5.0,15.0,0.0,38.0
9121.0,579.0,15.0,39.0,5.0,high,4,1.0,1.0,1.0,755.0,medium,0,1375536,1378,main_task,5.0,18.0,2.0,39.0
9121.0,580.0,15.0,40.0,5.0,high,5,1.0,1.0,1.0,654.0,medium,0,1377196,1380,main_task,5.0,17.0,7.0,40.0
9121.0,581.0,15.0,41.0,5.0,high,4,1.0,1.0,1.0,556.0,medium,0,1378758,1382,main_task,5.0,18.0,3.0,41.0
9121.0,582.0,15.0,42.0,5.0,high,5,1.0,1.0,1.0,1151.0,slow,0,1380916,1384,main_task,5.0,17.0,8.0,42.0
9121.0,583.0,15.0,43.0,5.0,high,2,2.0,2.0,1.0,1300.0,slow,0,1383221,1386,main_task,5.0,17.0,7.0,43.0
9121.0,584.0,15.0,44.0,5.0,high,3,1.0,1.0,1.0,1162.0,slow,0,1385389,1388,main_task,5.0,15.0,1.0,44.0
9121.0,585.0,15.0,45.0,5.0,high,1,2.0,2.0,1.0,545.0,medium,0,1386941,1390,main_task,5.0,15.0,7.0,45.0
9121.0,586.0,15.0,46.0,5.0,high,1,2.0,2.0,1.0,473.0,fast,0,1388420,1392,main_task,5.0,15.0,8.0,46.0
9121.0,587.0,15.0,47.0,5.0,high,3,1.0,1.0,1.0,601.0,medium,0,1390028,1394,main_task,5.0,15.0,2.0,47.0
9121.0,588.0,15.0,48.0,5.0,high,4,1.0,1.0,1.0,635.0,medium,0,1391670,1396,main_task,5.0,18.0,4.0,48.0
9121.0,589.0,15.0,49.0,5.0,high,5,1.0,1.0,1.0,569.0,medium,0,1393246,1398,main_task,5.0,17.0,9.0,49.0
9121.0,590.0,15.0,50.0,5.0,high,1,2.0,2.0,1.0,655.0,medium,0,1394907,1400,main_task,5.0,15.0,9.0,50.0
9121.0,591.0,15.0,51.0,5.0,high,4,1.0,1.0,1.0,650.0,medium,0,1396563,1402,main_task,5.0,18.0,5.0,51.0
9121.0,592.0,15.0,52.0,5.0,high,2,2.0,2.0,1.0,530.0,medium,0,1398099,1404,main_task,5.0,17.0,8.0,52.0
9121.0,593.0,15.0,53.0,5.0,high,2,2.0,2.0,1.0,538.0,medium,0,1399643,1406,main_task,5.0,17.0,9.0,53.0
9121.0,594.0,15.0,54.0,5.0,high,5,1.0,1.0,1.0,531.0,medium,0,1401181,1408,main_task,5.0,17.0,10.0,54.0
9121.0,595.0,15.0,55.0,5.0,high,4,2.0,1.0,0.0,550.0,medium,0,1402736,1410,main_task,5.0,18.0,0.0,55.0
9121.0,596.0,15.0,56.0,5.0,high,3,1.0,1.0,1.0,799.0,medium,0,1404541,1412,main_task,5.0,15.0,3.0,56.0
9121.0,597.0,15.0,57.0,5.0,high,3,1.0,1.0,1.0,576.0,medium,0,1406123,1414,main_task,5.0,15.0,4.0,57.0
9121.0,598.0,15.0,58.0,5.0,high,2,2.0,2.0,1.0,610.0,medium,0,1407739,1416,main_task,5.0,17.0,10.0,58.0
9121.0,599.0,15.0,59.0,5.0,high,1,1.0,2.0,0.0,1505.0,slow,0,1410250,1418,main_task,5.0,15.0,0.0,59.0
9121.0,600.0,15.0,60.0,5.0,high,5,1.0,1.0,1.0,565.0,medium,0,1411821,1420,main_task,5.0,17.0,11.0,60.0
9121.0,601.0,15.0,61.0,5.0,high,1,2.0,2.0,1.0,543.0,medium,0,1413369,1422,main_task,5.0,15.0,1.0,61.0
9121.0,602.0,15.0,62.0,5.0,high,4,1.0,1.0,1.0,585.0,medium,0,1414962,1424,main_task,5.0,18.0,1.0,62.0
9121.0,603.0,15.0,63.0,5.0,high,3,1.0,1.0,1.0,499.0,fast,0,1416468,1426,main_task,5.0,15.0,5.0,63.0
9121.0,604.0,15.0,64.0,5.0,high,5,1.0,1.0,1.0,648.0,medium,0,1418123,1428,main_task,5.0,17.0,12.0,64.0
9121.0,605.0,15.0,65.0,5.0,high,3,1.0,1.0,1.0,641.0,medium,0,1419769,1430,main_task,5.0,15.0,6.0,65.0
9121.0,606.0,15.0,66.0,5.0,high,2,2.0,2.0,1.0,602.0,medium,0,1421377,1432,main_task,5.0,17.0,11.0,66.0
9121.0,607.0,15.0,67.0,5.0,high,5,1.0,1.0,1.0,657.0,medium,0,1423041,1434,main_task,5.0,17.0,13.0,67.0
9121.0,608.0,15.0,68.0,5.0,high,4,1.0,1.0,1.0,540.0,medium,0,1424587,1436,main_task,5.0,18.0,2.0,68.0
9121.0,609.0,15.0,69.0,5.0,high,1,2.0,2.0,1.0,573.0,medium,0,1426168,1438,main_task,5.0,15.0,2.0,69.0
9121.0,610.0,15.0,70.0,5.0,high,2,2.0,2.0,1.0,620.0,medium,0,1427794,1440,main_task,5.0,17.0,12.0,70.0
9121.0,611.0,15.0,71.0,5.0,high,2,2.0,2.0,1.0,635.0,medium,0,1429435,1442,main_task,5.0,17.0,13.0,71.0
9121.0,612.0,15.0,72.0,5.0,high,1,2.0,2.0,1.0,646.0,medium,0,1431086,1444,main_task,5.0,15.0,3.0,72.0
9121.0,613.0,15.0,73.0,5.0,high,4,1.0,1.0,1.0,648.0,medium,0,1432740,1446,main_task,5.0,18.0,3.0,73.0
9121.0,614.0,15.0,74.0,5.0,high,3,1.0,1.0,1.0,886.0,medium,0,1434633,1448,main_task,5.0,15.0,7.0,74.0
9121.0,615.0,15.0,75.0,5.0,high,4,1.0,1.0,1.0,590.0,medium,0,1436229,1450,main_task,5.0,18.0,4.0,75.0
9121.0,616.0,16.0,1.0,6.0,high,1,0.0,2.0,0.0,337.0,fast,0,1493971,1454,main_task,8.0,13.0,0.0,1.0
9121.0,617.0,16.0,2.0,6.0,high,2,0.0,2.0,0.0,237.0,fast,0,1495216,1456,main_task,8.0,13.0,0.0,2.0
9121.0,618.0,16.0,3.0,6.0,high,3,0.0,0.0,1.0,311.0,fast,0,1496534,1458,main_task,8.0,12.0,1.0,3.0
9121.0,619.0,16.0,4.0,6.0,high,4,0.0,0.0,1.0,524.0,medium,0,1498065,1460,main_task,8.0,14.0,1.0,4.0
9121.0,620.0,16.0,5.0,6.0,high,5,0.0,2.0,0.0,469.0,fast,0,1499541,1462,main_task,8.0,16.0,0.0,5.0
9121.0,621.0,16.0,6.0,6.0,high,6,0.0,1.0,0.0,535.0,medium,0,1501081,1464,main_task,8.0,17.0,0.0,6.0
9121.0,622.0,16.0,7.0,6.0,high,1,1.0,2.0,0.0,691.0,medium,0,1502778,1466,main_task,8.0,13.0,0.0,7.0
9121.0,623.0,16.0,8.0,6.0,high,3,1.0,0.0,0.0,374.0,fast,0,1504159,1468,main_task,8.0,12.0,0.0,8.0
9121.0,624.0,16.0,9.0,6.0,high,2,1.0,2.0,0.0,590.0,medium,0,1505755,1470,main_task,8.0,13.0,0.0,9.0
9121.0,625.0,16.0,10.0,6.0,high,6,1.0,1.0,1.0,522.0,medium,0,1507283,1472,main_task,8.0,17.0,1.0,10.0
9121.0,626.0,16.0,11.0,6.0,high,4,0.0,0.0,1.0,792.0,medium,0,1509081,1474,main_task,8.0,14.0,2.0,11.0
9121.0,627.0,16.0,12.0,6.0,high,2,1.0,2.0,0.0,593.0,medium,0,1510679,1476,main_task,8.0,13.0,0.0,12.0
9121.0,628.0,16.0,13.0,6.0,high,5,1.0,2.0,0.0,670.0,medium,0,1512354,1478,main_task,8.0,16.0,0.0,13.0
9121.0,629.0,16.0,14.0,6.0,high,5,2.0,2.0,1.0,822.0,medium,0,1514181,1480,main_task,8.0,16.0,1.0,14.0
9121.0,630.0,16.0,15.0,6.0,high,1,2.0,2.0,1.0,838.0,medium,0,1516025,1482,main_task,8.0,13.0,1.0,15.0
9121.0,631.0,16.0,16.0,6.0,high,5,2.0,2.0,1.0,914.0,medium,0,1517946,1484,main_task,8.0,16.0,2.0,16.0
9121.0,632.0,16.0,17.0,6.0,high,3,0.0,0.0,1.0,653.0,medium,0,1519604,1486,main_task,8.0,12.0,1.0,17.0
9121.0,633.0,16.0,18.0,6.0,high,2,2.0,2.0,1.0,747.0,medium,0,1521357,1488,main_task,8.0,13.0,1.0,18.0
9121.0,634.0,16.0,19.0,6.0,high,6,1.0,1.0,1.0,486.0,fast,0,1522850,1490,main_task,8.0,17.0,2.0,19.0
9121.0,635.0,16.0,20.0,6.0,high,6,1.0,1.0,1.0,547.0,medium,0,1524403,1492,main_task,8.0,17.0,3.0,20.0
9121.0,636.0,16.0,21.0,6.0,high,4,0.0,0.0,1.0,681.0,medium,0,1526090,1494,main_task,8.0,14.0,3.0,21.0
9121.0,637.0,16.0,22.0,6.0,high,3,0.0,0.0,1.0,591.0,medium,0,1527688,1496,main_task,8.0,12.0,2.0,22.0
9121.0,638.0,16.0,23.0,6.0,high,4,0.0,0.0,1.0,658.0,medium,0,1529352,1498,main_task,8.0,14.0,4.0,23.0
9121.0,639.0,16.0,24.0,6.0,high,6,1.0,1.0,1.0,564.0,medium,0,1530923,1500,main_task,8.0,17.0,4.0,24.0
9121.0,640.0,16.0,25.0,6.0,high,1,2.0,2.0,1.0,644.0,medium,0,1532573,1502,main_task,8.0,13.0,2.0,25.0
9121.0,641.0,16.0,26.0,6.0,high,4,0.0,0.0,1.0,575.0,medium,0,1534154,1504,main_task,8.0,14.0,5.0,26.0
9121.0,642.0,16.0,27.0,6.0,high,5,2.0,2.0,1.0,810.0,medium,0,1535970,1506,main_task,8.0,16.0,3.0,27.0
9121.0,643.0,16.0,28.0,6.0,high,3,0.0,0.0,1.0,611.0,medium,0,1537585,1508,main_task,8.0,12.0,3.0,28.0
9121.0,644.0,16.0,29.0,6.0,high,2,2.0,2.0,1.0,658.0,medium,0,1539249,1510,main_task,8.0,13.0,2.0,29.0
9121.0,645.0,16.0,30.0,6.0,high,1,2.0,2.0,1.0,627.0,medium,0,1540883,1512,main_task,8.0,13.0,3.0,30.0
9121.0,646.0,16.0,31.0,6.0,high,3,0.0,0.0,1.0,607.0,medium,0,1542494,1514,main_task,8.0,12.0,4.0,31.0
9121.0,647.0,16.0,32.0,6.0,high,6,1.0,1.0,1.0,559.0,medium,0,1544059,1516,main_task,8.0,17.0,5.0,32.0
9121.0,648.0,16.0,33.0,6.0,high,4,1.0,0.0,0.0,560.0,medium,0,1545625,1518,main_task,8.0,14.0,0.0,33.0
9121.0,649.0,16.0,34.0,6.0,high,1,2.0,2.0,1.0,516.0,medium,0,1547146,1520,main_task,8.0,13.0,4.0,34.0
9121.0,650.0,16.0,35.0,6.0,high,5,2.0,2.0,1.0,584.0,medium,0,1548736,1522,main_task,8.0,16.0,4.0,35.0
9121.0,651.0,16.0,36.0,6.0,high,5,2.0,2.0,1.0,588.0,medium,0,1550328,1524,main_task,8.0,16.0,5.0,36.0
9121.0,652.0,16.0,37.0,6.0,high,3,0.0,0.0,1.0,485.0,fast,0,1551817,1526,main_task,8.0,12.0,5.0,37.0
9121.0,653.0,16.0,38.0,6.0,high,2,2.0,2.0,1.0,560.0,medium,0,1553381,1528,main_task,8.0,13.0,3.0,38.0
9121.0,654.0,16.0,39.0,6.0,high,1,2.0,2.0,1.0,501.0,medium,0,1554885,1530,main_task,8.0,13.0,5.0,39.0
9121.0,655.0,16.0,40.0,6.0,high,2,2.0,2.0,1.0,803.0,medium,0,1556692,1532,main_task,8.0,13.0,4.0,40.0
9121.0,656.0,16.0,41.0,6.0,high,6,1.0,1.0,1.0,559.0,medium,0,1558257,1534,main_task,8.0,17.0,6.0,41.0
9121.0,657.0,16.0,42.0,6.0,high,4,0.0,0.0,1.0,565.0,medium,0,1559829,1536,main_task,8.0,14.0,1.0,42.0
9121.0,658.0,16.0,43.0,6.0,high,4,0.0,0.0,1.0,658.0,medium,0,1561493,1538,main_task,8.0,14.0,2.0,43.0
9121.0,659.0,16.0,44.0,6.0,high,6,1.0,1.0,1.0,581.0,medium,0,1563080,1540,main_task,8.0,17.0,7.0,44.0
9121.0,660.0,16.0,45.0,6.0,high,4,0.0,0.0,1.0,576.0,medium,0,1564662,1542,main_task,8.0,14.0,3.0,45.0
9121.0,661.0,16.0,46.0,6.0,high,5,2.0,2.0,1.0,431.0,fast,0,1566100,1544,main_task,8.0,16.0,6.0,46.0
9121.0,662.0,16.0,47.0,6.0,high,2,2.0,2.0,1.0,609.0,medium,0,1567716,1546,main_task,8.0,13.0,5.0,47.0
9121.0,663.0,16.0,48.0,6.0,high,3,0.0,0.0,1.0,623.0,medium,0,1569345,1548,main_task,8.0,12.0,6.0,48.0
9121.0,664.0,16.0,49.0,6.0,high,1,2.0,2.0,1.0,520.0,medium,0,1570872,1550,main_task,8.0,13.0,6.0,49.0
9121.0,665.0,16.0,50.0,6.0,high,5,2.0,2.0,1.0,526.0,medium,0,1572403,1552,main_task,8.0,16.0,7.0,50.0
9121.0,666.0,16.0,51.0,6.0,high,6,1.0,1.0,1.0,1201.0,slow,0,1574609,1554,main_task,8.0,17.0,8.0,51.0
9121.0,667.0,16.0,52.0,6.0,high,2,2.0,2.0,1.0,519.0,medium,0,1576133,1556,main_task,8.0,13.0,6.0,52.0
9121.0,668.0,16.0,53.0,6.0,high,1,2.0,2.0,1.0,572.0,medium,0,1577711,1558,main_task,8.0,13.0,7.0,53.0
9121.0,669.0,16.0,54.0,6.0,high,3,0.0,0.0,1.0,544.0,medium,0,1579261,1560,main_task,8.0,12.0,7.0,54.0
9121.0,670.0,16.0,55.0,6.0,high,1,2.0,2.0,1.0,527.0,medium,0,1580793,1562,main_task,8.0,13.0,8.0,55.0
9121.0,671.0,16.0,56.0,6.0,high,4,0.0,0.0,1.0,581.0,medium,0,1582381,1564,main_task,8.0,14.0,4.0,56.0
9121.0,672.0,16.0,57.0,6.0,high,3,0.0,0.0,1.0,580.0,medium,0,1583967,1566,main_task,8.0,12.0,8.0,57.0
9121.0,673.0,16.0,58.0,6.0,high,5,2.0,2.0,1.0,682.0,medium,0,1585655,1568,main_task,8.0,16.0,8.0,58.0
9121.0,674.0,16.0,59.0,6.0,high,5,2.0,2.0,1.0,860.0,medium,0,1587521,1570,main_task,8.0,16.0,9.0,59.0
9121.0,675.0,16.0,60.0,6.0,high,2,2.0,2.0,1.0,619.0,medium,0,1589145,1572,main_task,8.0,13.0,7.0,60.0
9121.0,676.0,16.0,61.0,6.0,high,6,2.0,1.0,0.0,387.0,fast,0,1590539,1574,main_task,8.0,17.0,0.0,61.0
9121.0,677.0,16.0,62.0,6.0,high,4,0.0,0.0,1.0,608.0,medium,0,1592151,1576,main_task,8.0,14.0,5.0,62.0
9121.0,678.0,16.0,63.0,6.0,high,2,2.0,2.0,1.0,560.0,medium,0,1593717,1578,main_task,8.0,13.0,8.0,63.0
9121.0,679.0,16.0,64.0,6.0,high,3,0.0,0.0,1.0,566.0,medium,0,1595290,1580,main_task,8.0,12.0,9.0,64.0
9121.0,680.0,16.0,65.0,6.0,high,6,1.0,1.0,1.0,614.0,medium,0,1596910,1582,main_task,8.0,17.0,1.0,65.0
9121.0,681.0,16.0,66.0,6.0,high,1,2.0,2.0,1.0,550.0,medium,0,1598467,1584,main_task,8.0,13.0,9.0,66.0
9121.0,682.0,16.0,67.0,6.0,high,6,1.0,1.0,1.0,629.0,medium,0,1600103,1586,main_task,8.0,17.0,2.0,67.0
9121.0,683.0,16.0,68.0,6.0,high,5,2.0,2.0,1.0,546.0,medium,0,1601656,1588,main_task,8.0,16.0,10.0,68.0
9121.0,684.0,16.0,69.0,6.0,high,3,0.0,0.0,1.0,514.0,medium,0,1603175,1590,main_task,8.0,12.0,10.0,69.0
9121.0,685.0,16.0,70.0,6.0,high,1,2.0,2.0,1.0,557.0,medium,0,1604737,1592,main_task,8.0,13.0,10.0,70.0
9121.0,686.0,16.0,71.0,6.0,high,1,2.0,2.0,1.0,537.0,medium,0,1606281,1594,main_task,8.0,13.0,11.0,71.0
9121.0,687.0,16.0,72.0,6.0,high,4,0.0,0.0,1.0,615.0,medium,0,1607902,1596,main_task,8.0,14.0,6.0,72.0
9121.0,688.0,16.0,73.0,6.0,high,2,2.0,2.0,1.0,437.0,fast,0,1609346,1598,main_task,8.0,13.0,9.0,73.0
9121.0,689.0,16.0,74.0,6.0,high,3,0.0,0.0,1.0,753.0,medium,0,1611104,1600,main_task,8.0,12.0,11.0,74.0
9121.0,690.0,16.0,75.0,6.0,high,5,2.0,2.0,1.0,526.0,medium,0,1612637,1602,main_task,8.0,16.0,11.0,75.0
9121.0,691.0,16.0,76.0,6.0,high,6,1.0,1.0,1.0,570.0,medium,0,1614213,1604,main_task,8.0,17.0,3.0,76.0
9121.0,692.0,16.0,77.0,6.0,high,6,1.0,1.0,1.0,608.0,medium,0,1615827,1606,main_task,8.0,17.0,4.0,77.0
9121.0,693.0,16.0,78.0,6.0,high,4,0.0,0.0,1.0,572.0,medium,0,1617405,1608,main_task,8.0,14.0,7.0,78.0
9121.0,694.0,16.0,79.0,6.0,high,1,2.0,2.0,1.0,647.0,medium,0,1619058,1610,main_task,8.0,13.0,12.0,79.0
9121.0,695.0,16.0,80.0,6.0,high,4,0.0,0.0,1.0,778.0,medium,0,1620841,1612,main_task,8.0,14.0,8.0,80.0
9121.0,696.0,16.0,81.0,6.0,high,2,2.0,2.0,1.0,525.0,medium,0,1622372,1614,main_task,8.0,13.0,10.0,81.0
9121.0,697.0,16.0,82.0,6.0,high,2,2.0,2.0,1.0,633.0,medium,0,1624010,1616,main_task,8.0,13.0,11.0,82.0
9121.0,698.0,16.0,83.0,6.0,high,3,0.0,0.0,1.0,645.0,medium,0,1625662,1618,main_task,8.0,12.0,12.0,83.0
9121.0,699.0,16.0,84.0,6.0,high,4,0.0,0.0,1.0,776.0,medium,0,1627443,1620,main_task,8.0,14.0,9.0,84.0
9121.0,700.0,16.0,85.0,6.0,high,5,2.0,2.0,1.0,611.0,medium,0,1629060,1622,main_task,8.0,16.0,12.0,85.0
9121.0,701.0,16.0,86.0,6.0,high,3,0.0,1.0,0.0,503.0,medium,0,1630570,1624,main_task,8.0,inf,0.0,86.0
9121.0,702.0,16.0,87.0,6.0,high,2,2.0,2.0,1.0,580.0,medium,0,1632155,1626,main_task,8.0,13.0,12.0,87.0
9121.0,703.0,16.0,88.0,6.0,high,6,1.0,1.0,1.0,541.0,medium,0,1633703,1628,main_task,8.0,17.0,5.0,88.0
9121.0,704.0,16.0,89.0,6.0,high,3,1.0,1.0,1.0,527.0,medium,0,1635236,1630,main_task,8.0,inf,1.0,89.0
9121.0,705.0,16.0,90.0,6.0,high,1,2.0,2.0,1.0,568.0,medium,0,1636810,1632,main_task,8.0,13.0,13.0,90.0
9121.0,706.0,17.0,1.0,3.0,low,1,0.0,1.0,0.0,481.0,fast,0,1640376,1636,main_task,7.0,16.0,0.0,1.0
9121.0,707.0,17.0,2.0,3.0,low,2,0.0,1.0,0.0,262.0,fast,0,1641644,1638,main_task,7.0,16.0,0.0,2.0
9121.0,708.0,17.0,3.0,3.0,low,3,0.0,2.0,0.0,539.0,medium,0,1643189,1640,main_task,7.0,18.0,0.0,3.0
9121.0,709.0,17.0,4.0,3.0,low,2,1.0,1.0,1.0,337.0,fast,0,1644533,1642,main_task,7.0,16.0,1.0,4.0
9121.0,710.0,17.0,5.0,3.0,low,1,1.0,1.0,1.0,413.0,fast,0,1645952,1644,main_task,7.0,16.0,1.0,5.0
9121.0,711.0,17.0,6.0,3.0,low,3,2.0,2.0,1.0,476.0,fast,0,1647434,1646,main_task,7.0,18.0,1.0,6.0
9121.0,712.0,17.0,7.0,3.0,low,3,2.0,2.0,1.0,623.0,medium,0,1649063,1648,main_task,7.0,18.0,2.0,7.0
9121.0,713.0,17.0,8.0,3.0,low,2,1.0,1.0,1.0,530.0,medium,0,1650599,1650,main_task,7.0,16.0,2.0,8.0
9121.0,714.0,17.0,9.0,3.0,low,3,2.0,2.0,1.0,632.0,medium,0,1652238,1652,main_task,7.0,18.0,3.0,9.0
9121.0,715.0,17.0,10.0,3.0,low,1,1.0,1.0,1.0,513.0,medium,0,1653756,1654,main_task,7.0,16.0,2.0,10.0
9121.0,716.0,17.0,11.0,3.0,low,1,1.0,1.0,1.0,471.0,fast,0,1655230,1656,main_task,7.0,16.0,3.0,11.0
9121.0,717.0,17.0,12.0,3.0,low,2,1.0,1.0,1.0,664.0,medium,0,1656900,1658,main_task,7.0,16.0,3.0,12.0
9121.0,718.0,17.0,13.0,3.0,low,1,1.0,1.0,1.0,573.0,medium,0,1658479,1660,main_task,7.0,16.0,4.0,13.0
9121.0,719.0,17.0,14.0,3.0,low,3,2.0,2.0,1.0,435.0,fast,0,1659922,1662,main_task,7.0,18.0,4.0,14.0
9121.0,720.0,17.0,15.0,3.0,low,2,1.0,1.0,1.0,642.0,medium,0,1661570,1664,main_task,7.0,16.0,4.0,15.0
9121.0,721.0,17.0,16.0,3.0,low,1,1.0,1.0,1.0,523.0,medium,0,1663099,1666,main_task,7.0,16.0,5.0,16.0
9121.0,722.0,17.0,17.0,3.0,low,1,1.0,1.0,1.0,520.0,medium,0,1664625,1668,main_task,7.0,16.0,6.0,17.0
9121.0,723.0,17.0,18.0,3.0,low,3,2.0,2.0,1.0,580.0,medium,0,1666212,1670,main_task,7.0,18.0,5.0,18.0
9121.0,724.0,17.0,19.0,3.0,low,3,2.0,2.0,1.0,559.0,medium,0,1667776,1672,main_task,7.0,18.0,6.0,19.0
9121.0,725.0,17.0,20.0,3.0,low,2,2.0,1.0,0.0,582.0,medium,0,1669364,1674,main_task,7.0,16.0,0.0,20.0
9121.0,726.0,17.0,21.0,3.0,low,3,2.0,2.0,1.0,522.0,medium,0,1670892,1676,main_task,7.0,18.0,7.0,21.0
9121.0,727.0,17.0,22.0,3.0,low,1,1.0,1.0,1.0,445.0,fast,0,1672343,1678,main_task,7.0,16.0,7.0,22.0
9121.0,728.0,17.0,23.0,3.0,low,2,2.0,1.0,0.0,589.0,medium,0,1673939,1680,main_task,7.0,16.0,0.0,23.0
9121.0,729.0,17.0,24.0,3.0,low,2,1.0,1.0,1.0,423.0,fast,0,1675369,1682,main_task,7.0,16.0,1.0,24.0
9121.0,730.0,17.0,25.0,3.0,low,3,1.0,2.0,0.0,792.0,medium,0,1677168,1684,main_task,7.0,18.0,0.0,25.0
9121.0,731.0,17.0,26.0,3.0,low,2,2.0,1.0,0.0,525.0,medium,0,1678699,1686,main_task,7.0,16.0,0.0,26.0
9121.0,732.0,17.0,27.0,3.0,low,1,1.0,1.0,1.0,562.0,medium,0,1680268,1688,main_task,7.0,16.0,8.0,27.0
9121.0,733.0,17.0,28.0,3.0,low,3,2.0,2.0,1.0,532.0,medium,0,1681807,1690,main_task,7.0,18.0,1.0,28.0
9121.0,734.0,17.0,29.0,3.0,low,2,1.0,1.0,1.0,755.0,medium,0,1683569,1692,main_task,7.0,16.0,1.0,29.0
9121.0,735.0,17.0,30.0,3.0,low,3,2.0,2.0,1.0,519.0,medium,0,1685093,1694,main_task,7.0,18.0,2.0,30.0
9121.0,736.0,17.0,31.0,3.0,low,1,1.0,1.0,1.0,465.0,fast,0,1686564,1696,main_task,7.0,16.0,9.0,31.0
9121.0,737.0,17.0,32.0,3.0,low,1,1.0,1.0,1.0,488.0,fast,0,1688059,1698,main_task,7.0,16.0,10.0,32.0
9121.0,738.0,17.0,33.0,3.0,low,2,2.0,1.0,0.0,617.0,medium,0,1689683,1700,main_task,7.0,16.0,0.0,33.0
9121.0,739.0,17.0,34.0,3.0,low,2,1.0,1.0,1.0,605.0,medium,0,1691295,1702,main_task,7.0,16.0,1.0,34.0
9121.0,740.0,17.0,35.0,3.0,low,3,2.0,2.0,1.0,545.0,medium,0,1692850,1704,main_task,7.0,18.0,3.0,35.0
9121.0,741.0,17.0,36.0,3.0,low,1,1.0,1.0,1.0,582.0,medium,0,1694438,1706,main_task,7.0,16.0,11.0,36.0
9121.0,742.0,17.0,37.0,3.0,low,2,1.0,1.0,1.0,704.0,medium,0,1696148,1708,main_task,7.0,16.0,2.0,37.0
9121.0,743.0,17.0,38.0,3.0,low,1,1.0,1.0,1.0,493.0,fast,0,1697647,1710,main_task,7.0,16.0,12.0,38.0
9121.0,744.0,17.0,39.0,3.0,low,2,1.0,1.0,1.0,544.0,medium,0,1699197,1712,main_task,7.0,16.0,3.0,39.0
9121.0,745.0,17.0,40.0,3.0,low,3,2.0,2.0,1.0,504.0,medium,0,1700706,1714,main_task,7.0,18.0,4.0,40.0
9121.0,746.0,17.0,41.0,3.0,low,3,2.0,2.0,1.0,558.0,medium,0,1702272,1716,main_task,7.0,18.0,5.0,41.0
9121.0,747.0,17.0,42.0,3.0,low,2,1.0,1.0,1.0,1012.0,slow,0,1704291,1718,main_task,7.0,16.0,4.0,42.0
9121.0,748.0,17.0,43.0,3.0,low,1,1.0,1.0,1.0,797.0,medium,0,1706094,1720,main_task,7.0,16.0,13.0,43.0
9121.0,749.0,17.0,44.0,3.0,low,1,1.0,1.0,1.0,525.0,medium,0,1707624,1722,main_task,7.0,16.0,14.0,44.0
9121.0,750.0,17.0,45.0,3.0,low,3,2.0,2.0,1.0,652.0,medium,0,1709283,1724,main_task,7.0,18.0,6.0,45.0
9121.0,751.0,19.0,1.0,5.0,high,1,0.0,0.0,1.0,646.0,medium,0,1713065,1728,main_task,16.0,15.0,1.0,1.0
9121.0,752.0,19.0,2.0,5.0,high,2,0.0,0.0,1.0,437.0,fast,0,1714509,1730,main_task,16.0,16.0,1.0,2.0
9121.0,753.0,19.0,3.0,5.0,high,3,0.0,0.0,1.0,428.0,fast,0,1715944,1732,main_task,16.0,14.0,1.0,3.0
9121.0,754.0,19.0,4.0,5.0,high,4,0.0,1.0,0.0,658.0,medium,0,1717609,1734,main_task,16.0,14.0,0.0,4.0
9121.0,755.0,19.0,5.0,5.0,high,5,0.0,0.0,1.0,780.0,medium,0,1719395,1736,main_task,16.0,15.0,1.0,5.0
9121.0,756.0,19.0,6.0,5.0,high,3,0.0,0.0,1.0,793.0,medium,0,1721194,1738,main_task,16.0,14.0,2.0,6.0
9121.0,757.0,19.0,7.0,5.0,high,1,0.0,0.0,1.0,667.0,medium,0,1722868,1740,main_task,16.0,15.0,2.0,7.0
9121.0,758.0,19.0,8.0,5.0,high,4,1.0,1.0,1.0,745.0,medium,0,1724618,1742,main_task,16.0,14.0,1.0,8.0
9121.0,759.0,19.0,9.0,5.0,high,2,0.0,0.0,1.0,537.0,medium,0,1726162,1744,main_task,16.0,16.0,2.0,9.0
9121.0,760.0,19.0,10.0,5.0,high,5,0.0,0.0,1.0,576.0,medium,0,1727743,1746,main_task,16.0,15.0,2.0,10.0
9121.0,761.0,19.0,11.0,5.0,high,2,0.0,0.0,1.0,585.0,medium,0,1729334,1748,main_task,16.0,16.0,3.0,11.0
9121.0,762.0,19.0,12.0,5.0,high,5,0.0,0.0,1.0,457.0,fast,0,1730795,1750,main_task,16.0,15.0,3.0,12.0
9121.0,763.0,19.0,13.0,5.0,high,4,1.0,1.0,1.0,420.0,fast,0,1732220,1752,main_task,16.0,14.0,2.0,13.0
9121.0,764.0,19.0,14.0,5.0,high,3,0.0,0.0,1.0,338.0,fast,0,1733563,1754,main_task,16.0,14.0,3.0,14.0
9121.0,765.0,19.0,15.0,5.0,high,1,0.0,0.0,1.0,540.0,medium,0,1735110,1756,main_task,16.0,15.0,3.0,15.0
9121.0,766.0,19.0,16.0,5.0,high,1,0.0,0.0,1.0,776.0,medium,0,1736892,1758,main_task,16.0,15.0,4.0,16.0
9121.0,767.0,19.0,17.0,5.0,high,2,0.0,0.0,1.0,617.0,medium,0,1738516,1760,main_task,16.0,16.0,4.0,17.0
9121.0,768.0,19.0,18.0,5.0,high,3,0.0,0.0,1.0,569.0,medium,0,1740092,1762,main_task,16.0,14.0,4.0,18.0
9121.0,769.0,19.0,19.0,5.0,high,3,0.0,0.0,1.0,482.0,fast,0,1741580,1764,main_task,16.0,14.0,5.0,19.0
9121.0,770.0,19.0,20.0,5.0,high,4,1.0,1.0,1.0,489.0,fast,0,1743075,1766,main_task,16.0,14.0,3.0,20.0
9121.0,771.0,19.0,21.0,5.0,high,5,0.0,0.0,1.0,543.0,medium,0,1744625,1768,main_task,16.0,15.0,4.0,21.0
9121.0,772.0,19.0,22.0,5.0,high,2,0.0,0.0,1.0,858.0,medium,0,1746490,1770,main_task,16.0,16.0,5.0,22.0
9121.0,773.0,19.0,23.0,5.0,high,4,1.0,1.0,1.0,852.0,medium,0,1748349,1772,main_task,16.0,14.0,4.0,23.0
9121.0,774.0,19.0,24.0,5.0,high,5,0.0,0.0,1.0,531.0,medium,0,1749886,1774,main_task,16.0,15.0,5.0,24.0
9121.0,775.0,19.0,25.0,5.0,high,1,0.0,0.0,1.0,426.0,fast,0,1751318,1776,main_task,16.0,15.0,5.0,25.0
9121.0,776.0,19.0,26.0,5.0,high,5,0.0,0.0,1.0,492.0,fast,0,1752817,1778,main_task,16.0,15.0,6.0,26.0
9121.0,777.0,19.0,27.0,5.0,high,4,1.0,1.0,1.0,537.0,medium,0,1754360,1780,main_task,16.0,14.0,5.0,27.0
9121.0,778.0,19.0,28.0,5.0,high,3,0.0,0.0,1.0,541.0,medium,0,1755906,1782,main_task,16.0,14.0,6.0,28.0
9121.0,779.0,19.0,29.0,5.0,high,2,0.0,0.0,1.0,522.0,medium,0,1757436,1784,main_task,16.0,16.0,6.0,29.0
9121.0,780.0,19.0,30.0,5.0,high,2,0.0,0.0,1.0,497.0,fast,0,1758939,1786,main_task,16.0,16.0,7.0,30.0
9121.0,781.0,19.0,31.0,5.0,high,1,0.0,0.0,1.0,522.0,medium,0,1760467,1788,main_task,16.0,15.0,6.0,31.0
9121.0,782.0,19.0,32.0,5.0,high,4,1.0,1.0,1.0,452.0,fast,0,1761926,1790,main_task,16.0,14.0,6.0,32.0
9121.0,783.0,19.0,33.0,5.0,high,5,0.0,0.0,1.0,603.0,medium,0,1763536,1792,main_task,16.0,15.0,7.0,33.0
9121.0,784.0,19.0,34.0,5.0,high,1,0.0,0.0,1.0,531.0,medium,0,1765074,1794,main_task,16.0,15.0,7.0,34.0
9121.0,785.0,19.0,35.0,5.0,high,5,0.0,0.0,1.0,488.0,fast,0,1766567,1796,main_task,16.0,15.0,8.0,35.0
9121.0,786.0,19.0,36.0,5.0,high,3,0.0,0.0,1.0,622.0,medium,0,1768195,1798,main_task,16.0,14.0,7.0,36.0
9121.0,787.0,19.0,37.0,5.0,high,3,0.0,0.0,1.0,554.0,medium,0,1769755,1800,main_task,16.0,14.0,8.0,37.0
9121.0,788.0,19.0,38.0,5.0,high,1,0.0,0.0,1.0,668.0,medium,0,1771431,1802,main_task,16.0,15.0,8.0,38.0
9121.0,789.0,19.0,39.0,5.0,high,2,0.0,0.0,1.0,456.0,fast,0,1772894,1804,main_task,16.0,16.0,8.0,39.0
9121.0,790.0,19.0,40.0,5.0,high,4,1.0,1.0,1.0,558.0,medium,0,1774458,1806,main_task,16.0,14.0,7.0,40.0
9121.0,791.0,19.0,41.0,5.0,high,5,0.0,0.0,1.0,544.0,medium,0,1776009,1808,main_task,16.0,15.0,9.0,41.0
9121.0,792.0,19.0,42.0,5.0,high,2,0.0,0.0,1.0,596.0,medium,0,1777611,1810,main_task,16.0,16.0,9.0,42.0
9121.0,793.0,19.0,43.0,5.0,high,3,0.0,0.0,1.0,528.0,medium,0,1779146,1812,main_task,16.0,14.0,9.0,43.0
9121.0,794.0,19.0,44.0,5.0,high,4,1.0,1.0,1.0,551.0,medium,0,1780703,1814,main_task,16.0,14.0,8.0,44.0
9121.0,795.0,19.0,45.0,5.0,high,1,0.0,0.0,1.0,1040.0,slow,0,1782749,1816,main_task,16.0,15.0,9.0,45.0
9121.0,796.0,19.0,46.0,5.0,high,4,1.0,1.0,1.0,1927.0,slow,0,1785682,1818,main_task,16.0,14.0,9.0,46.0
9121.0,797.0,19.0,47.0,5.0,high,2,0.0,0.0,1.0,614.0,medium,0,1787302,1820,main_task,16.0,16.0,10.0,47.0
9121.0,798.0,19.0,48.0,5.0,high,2,0.0,0.0,1.0,1137.0,slow,0,1789446,1822,main_task,16.0,16.0,11.0,48.0
9121.0,799.0,19.0,49.0,5.0,high,5,0.0,0.0,1.0,1576.0,slow,0,1792029,1824,main_task,16.0,15.0,10.0,49.0
9121.0,800.0,19.0,50.0,5.0,high,3,0.0,0.0,1.0,1181.0,slow,0,1794216,1826,main_task,16.0,14.0,10.0,50.0
9121.0,801.0,19.0,51.0,5.0,high,1,0.0,0.0,1.0,1127.0,slow,0,1796349,1828,main_task,16.0,15.0,10.0,51.0
9121.0,802.0,19.0,52.0,5.0,high,1,0.0,0.0,1.0,522.0,medium,0,1797877,1830,main_task,16.0,15.0,11.0,52.0
9121.0,803.0,19.0,53.0,5.0,high,5,0.0,0.0,1.0,747.0,medium,0,1799630,1832,main_task,16.0,15.0,11.0,53.0
9121.0,804.0,19.0,54.0,5.0,high,4,1.0,1.0,1.0,567.0,medium,0,1801203,1834,main_task,16.0,14.0,10.0,54.0
9121.0,805.0,19.0,55.0,5.0,high,3,0.0,0.0,1.0,624.0,medium,0,1802833,1836,main_task,16.0,14.0,11.0,55.0
9121.0,806.0,19.0,56.0,5.0,high,4,1.0,1.0,1.0,782.0,medium,0,1804622,1838,main_task,16.0,14.0,11.0,56.0
9121.0,807.0,19.0,57.0,5.0,high,2,0.0,0.0,1.0,1535.0,slow,0,1807163,1840,main_task,16.0,16.0,12.0,57.0
9121.0,808.0,19.0,58.0,5.0,high,3,0.0,0.0,1.0,600.0,medium,0,1808769,1842,main_task,16.0,14.0,12.0,58.0
9121.0,809.0,19.0,59.0,5.0,high,2,0.0,0.0,1.0,717.0,medium,0,1810492,1844,main_task,16.0,16.0,13.0,59.0
9121.0,810.0,19.0,60.0,5.0,high,1,0.0,0.0,1.0,482.0,fast,0,1811979,1846,main_task,16.0,15.0,12.0,60.0
9121.0,811.0,19.0,61.0,5.0,high,4,1.0,1.0,1.0,614.0,medium,0,1813600,1848,main_task,16.0,14.0,12.0,61.0
9121.0,812.0,19.0,62.0,5.0,high,5,0.0,0.0,1.0,525.0,medium,0,1815131,1850,main_task,16.0,15.0,12.0,62.0
9121.0,813.0,19.0,63.0,5.0,high,1,0.0,0.0,1.0,546.0,medium,0,1816683,1852,main_task,16.0,15.0,13.0,63.0
9121.0,814.0,19.0,64.0,5.0,high,3,0.0,0.0,1.0,443.0,fast,0,1818132,1854,main_task,16.0,14.0,13.0,64.0
9121.0,815.0,19.0,65.0,5.0,high,3,0.0,0.0,1.0,457.0,fast,0,1819595,1856,main_task,16.0,14.0,14.0,65.0
9121.0,816.0,19.0,66.0,5.0,high,5,0.0,0.0,1.0,433.0,fast,0,1821033,1858,main_task,16.0,15.0,13.0,66.0
9121.0,817.0,19.0,67.0,5.0,high,1,0.0,0.0,1.0,419.0,fast,0,1822457,1860,main_task,16.0,15.0,14.0,67.0
9121.0,818.0,19.0,68.0,5.0,high,2,0.0,0.0,1.0,446.0,fast,0,1823910,1862,main_task,16.0,16.0,14.0,68.0
9121.0,819.0,19.0,69.0,5.0,high,5,0.0,0.0,1.0,418.0,fast,0,1825334,1864,main_task,16.0,15.0,14.0,69.0
9121.0,820.0,19.0,70.0,5.0,high,4,1.0,1.0,1.0,558.0,medium,0,1826897,1866,main_task,16.0,14.0,13.0,70.0
9121.0,821.0,19.0,71.0,5.0,high,4,1.0,1.0,1.0,559.0,medium,0,1828463,1868,main_task,16.0,14.0,14.0,71.0
9121.0,822.0,19.0,72.0,5.0,high,3,0.0,1.0,0.0,804.0,medium,0,1830273,1870,main_task,16.0,inf,0.0,72.0
9121.0,823.0,19.0,73.0,5.0,high,1,0.0,0.0,1.0,481.0,fast,0,1831760,1872,main_task,16.0,15.0,15.0,73.0
9121.0,824.0,19.0,74.0,5.0,high,5,0.0,0.0,1.0,553.0,medium,0,1833320,1874,main_task,16.0,15.0,15.0,74.0
9121.0,825.0,19.0,75.0,5.0,high,2,0.0,0.0,1.0,1054.0,slow,0,1835381,1876,main_task,16.0,16.0,15.0,75.0
9121.0,826.0,20.0,1.0,6.0,high,1,0.0,1.0,0.0,406.0,fast,0,1838768,1880,main_task,21.0,12.0,0.0,1.0
9121.0,827.0,20.0,2.0,6.0,high,2,0.0,2.0,0.0,284.0,fast,0,1840059,1882,main_task,21.0,16.0,0.0,2.0
9121.0,828.0,20.0,3.0,6.0,high,3,0.0,0.0,1.0,358.0,fast,0,1841423,1884,main_task,21.0,12.0,1.0,3.0
9121.0,829.0,20.0,4.0,6.0,high,4,0.0,2.0,0.0,316.0,fast,0,1842745,1886,main_task,21.0,15.0,0.0,4.0
9121.0,830.0,20.0,5.0,6.0,high,5,0.0,0.0,1.0,460.0,fast,0,1844212,1888,main_task,21.0,17.0,1.0,5.0
9121.0,831.0,20.0,6.0,6.0,high,6,0.0,1.0,0.0,428.0,fast,0,1845646,1890,main_task,21.0,13.0,0.0,6.0
9121.0,832.0,20.0,7.0,6.0,high,6,0.0,1.0,0.0,490.0,fast,0,1847142,1892,main_task,21.0,13.0,0.0,7.0
9121.0,833.0,20.0,8.0,6.0,high,3,0.0,0.0,1.0,721.0,medium,0,1848870,1894,main_task,21.0,12.0,2.0,8.0
9121.0,834.0,20.0,9.0,6.0,high,5,0.0,0.0,1.0,509.0,medium,0,1850386,1896,main_task,21.0,17.0,2.0,9.0
9121.0,835.0,20.0,10.0,6.0,high,1,1.0,1.0,1.0,257.0,fast,0,1851649,1898,main_task,21.0,12.0,1.0,10.0
9121.0,836.0,20.0,11.0,6.0,high,4,1.0,2.0,0.0,564.0,medium,0,1853219,1900,main_task,21.0,15.0,0.0,11.0
9121.0,837.0,20.0,12.0,6.0,high,2,1.0,2.0,0.0,689.0,medium,0,1854914,1902,main_task,21.0,16.0,0.0,12.0
9121.0,838.0,20.0,13.0,6.0,high,4,1.0,2.0,0.0,1267.0,slow,0,1857187,1904,main_task,21.0,15.0,0.0,13.0
9121.0,839.0,20.0,14.0,6.0,high,3,0.0,0.0,1.0,654.0,medium,0,1858848,1906,main_task,21.0,12.0,3.0,14.0
9121.0,840.0,20.0,15.0,6.0,high,6,1.0,1.0,1.0,641.0,medium,0,1860495,1908,main_task,21.0,13.0,1.0,15.0
9121.0,841.0,20.0,16.0,6.0,high,5,0.0,0.0,1.0,1993.0,slow,0,1863493,1910,main_task,21.0,17.0,3.0,16.0
9121.0,842.0,20.0,17.0,6.0,high,2,2.0,2.0,1.0,948.0,medium,0,1865447,1912,main_task,21.0,16.0,1.0,17.0
9121.0,843.0,20.0,18.0,6.0,high,1,1.0,1.0,1.0,1149.0,slow,0,1867603,1914,main_task,21.0,12.0,2.0,18.0
9121.0,844.0,20.0,19.0,6.0,high,6,1.0,1.0,1.0,406.0,fast,0,1869014,1916,main_task,21.0,13.0,2.0,19.0
9121.0,845.0,20.0,20.0,6.0,high,2,2.0,2.0,1.0,769.0,medium,0,1870787,1918,main_task,21.0,16.0,2.0,20.0
9121.0,846.0,20.0,21.0,6.0,high,1,1.0,1.0,1.0,796.0,medium,0,1872587,1920,main_task,21.0,12.0,3.0,21.0
9121.0,847.0,20.0,22.0,6.0,high,5,0.0,0.0,1.0,1364.0,slow,0,1874955,1922,main_task,21.0,17.0,4.0,22.0
9121.0,848.0,20.0,23.0,6.0,high,4,2.0,2.0,1.0,450.0,fast,0,1876409,1924,main_task,21.0,15.0,1.0,23.0
9121.0,849.0,20.0,24.0,6.0,high,5,0.0,0.0,1.0,804.0,medium,0,1878216,1926,main_task,21.0,17.0,5.0,24.0
9121.0,850.0,20.0,25.0,6.0,high,3,1.0,0.0,0.0,595.0,medium,0,1879815,1928,main_task,21.0,12.0,0.0,25.0
9121.0,851.0,20.0,26.0,6.0,high,3,0.0,0.0,1.0,666.0,medium,0,1881488,1930,main_task,21.0,12.0,1.0,26.0
9121.0,852.0,20.0,27.0,6.0,high,1,1.0,1.0,1.0,1180.0,slow,0,1883674,1932,main_task,21.0,12.0,4.0,27.0
9121.0,853.0,20.0,28.0,6.0,high,6,1.0,1.0,1.0,616.0,medium,0,1885297,1934,main_task,21.0,13.0,3.0,28.0
9121.0,854.0,20.0,29.0,6.0,high,2,2.0,2.0,1.0,585.0,medium,0,1886888,1936,main_task,21.0,16.0,3.0,29.0
9121.0,855.0,20.0,30.0,6.0,high,4,2.0,2.0,1.0,504.0,medium,0,1888397,1938,main_task,21.0,15.0,2.0,30.0
9121.0,856.0,20.0,31.0,6.0,high,6,1.0,1.0,1.0,756.0,medium,0,1890158,1940,main_task,21.0,13.0,4.0,31.0
9121.0,857.0,20.0,32.0,6.0,high,4,2.0,2.0,1.0,769.0,medium,0,1891934,1942,main_task,21.0,15.0,3.0,32.0
9121.0,858.0,20.0,33.0,6.0,high,2,2.0,2.0,1.0,1079.0,slow,0,1894019,1944,main_task,21.0,16.0,4.0,33.0
9121.0,859.0,20.0,34.0,6.0,high,5,0.0,0.0,1.0,764.0,medium,0,1895789,1946,main_task,21.0,17.0,6.0,34.0
9121.0,860.0,20.0,35.0,6.0,high,1,1.0,1.0,1.0,868.0,medium,0,1897663,1948,main_task,21.0,12.0,5.0,35.0
9121.0,861.0,20.0,36.0,6.0,high,1,1.0,1.0,1.0,589.0,medium,0,1899260,1950,main_task,21.0,12.0,6.0,36.0
9121.0,862.0,20.0,37.0,6.0,high,3,0.0,0.0,1.0,607.0,medium,0,1900874,1952,main_task,21.0,12.0,2.0,37.0
9121.0,863.0,20.0,38.0,6.0,high,2,2.0,2.0,1.0,999.0,medium,0,1902880,1954,main_task,21.0,16.0,5.0,38.0
9121.0,864.0,20.0,39.0,6.0,high,6,1.0,1.0,1.0,519.0,medium,0,1904405,1956,main_task,21.0,13.0,5.0,39.0
9121.0,865.0,20.0,40.0,6.0,high,5,0.0,0.0,1.0,733.0,medium,0,1906145,1958,main_task,21.0,17.0,7.0,40.0
9121.0,866.0,20.0,41.0,6.0,high,4,2.0,2.0,1.0,1361.0,slow,0,1908511,1960,main_task,21.0,15.0,4.0,41.0
9121.0,867.0,20.0,42.0,6.0,high,3,0.0,0.0,1.0,687.0,medium,0,1910206,1962,main_task,21.0,12.0,3.0,42.0
9121.0,868.0,20.0,43.0,6.0,high,3,0.0,0.0,1.0,595.0,medium,0,1911807,1964,main_task,21.0,12.0,4.0,43.0
9121.0,869.0,20.0,44.0,6.0,high,4,2.0,2.0,1.0,768.0,medium,0,1913581,1966,main_task,21.0,15.0,5.0,44.0
9121.0,870.0,20.0,45.0,6.0,high,2,2.0,2.0,1.0,797.0,medium,0,1915384,1968,main_task,21.0,16.0,6.0,45.0
9121.0,871.0,20.0,46.0,6.0,high,1,1.0,1.0,1.0,580.0,medium,0,1916970,1970,main_task,21.0,12.0,7.0,46.0
9121.0,872.0,20.0,47.0,6.0,high,2,2.0,2.0,1.0,816.0,medium,0,1918792,1972,main_task,21.0,16.0,7.0,47.0
9121.0,873.0,20.0,48.0,6.0,high,4,2.0,2.0,1.0,678.0,medium,0,1920477,1974,main_task,21.0,15.0,6.0,48.0
9121.0,874.0,20.0,49.0,6.0,high,5,0.0,0.0,1.0,653.0,medium,0,1922138,1976,main_task,21.0,17.0,8.0,49.0
9121.0,875.0,20.0,50.0,6.0,high,6,1.0,1.0,1.0,598.0,medium,0,1923741,1978,main_task,21.0,13.0,6.0,50.0
9121.0,876.0,20.0,51.0,6.0,high,1,1.0,1.0,1.0,848.0,medium,0,1925596,1980,main_task,21.0,12.0,8.0,51.0
9121.0,877.0,20.0,52.0,6.0,high,6,1.0,1.0,1.0,552.0,medium,0,1927154,1982,main_task,21.0,13.0,7.0,52.0
9121.0,878.0,20.0,53.0,6.0,high,3,0.0,0.0,1.0,585.0,medium,0,1928747,1984,main_task,21.0,12.0,5.0,53.0
9121.0,879.0,20.0,54.0,6.0,high,1,1.0,1.0,1.0,542.0,medium,0,1930295,1986,main_task,21.0,12.0,9.0,54.0
9121.0,880.0,20.0,55.0,6.0,high,5,0.0,0.0,1.0,434.0,fast,0,1931736,1988,main_task,21.0,17.0,9.0,55.0
9121.0,881.0,20.0,56.0,6.0,high,6,1.0,1.0,1.0,668.0,medium,0,1933411,1990,main_task,21.0,13.0,8.0,56.0
9121.0,882.0,20.0,57.0,6.0,high,3,0.0,0.0,1.0,567.0,medium,0,1934985,1992,main_task,21.0,12.0,6.0,57.0
9121.0,883.0,20.0,58.0,6.0,high,2,2.0,2.0,1.0,657.0,medium,0,1936647,1994,main_task,21.0,16.0,8.0,58.0
9121.0,884.0,20.0,59.0,6.0,high,4,2.0,2.0,1.0,403.0,fast,0,1938057,1996,main_task,21.0,15.0,7.0,59.0
9121.0,885.0,20.0,60.0,6.0,high,5,0.0,0.0,1.0,561.0,medium,0,1939622,1998,main_task,21.0,17.0,10.0,60.0
9121.0,886.0,20.0,61.0,6.0,high,5,0.0,0.0,1.0,593.0,medium,0,1941221,2000,main_task,21.0,17.0,11.0,61.0
9121.0,887.0,20.0,62.0,6.0,high,1,0.0,1.0,0.0,1959.0,slow,0,1944185,2002,main_task,21.0,12.0,0.0,62.0
9121.0,888.0,20.0,63.0,6.0,high,6,1.0,1.0,1.0,588.0,medium,0,1945780,2004,main_task,21.0,13.0,9.0,63.0
9121.0,889.0,20.0,64.0,6.0,high,3,0.0,0.0,1.0,528.0,medium,0,1947314,2006,main_task,21.0,12.0,7.0,64.0
9121.0,890.0,20.0,65.0,6.0,high,4,2.0,2.0,1.0,625.0,medium,0,1948946,2008,main_task,21.0,15.0,8.0,65.0
9121.0,891.0,20.0,66.0,6.0,high,2,2.0,2.0,1.0,890.0,medium,0,1950843,2010,main_task,21.0,16.0,9.0,66.0
9121.0,892.0,20.0,67.0,6.0,high,2,2.0,2.0,1.0,579.0,medium,0,1952428,2012,main_task,21.0,16.0,10.0,67.0
9121.0,893.0,20.0,68.0,6.0,high,4,2.0,2.0,1.0,559.0,medium,0,1953993,2014,main_task,21.0,15.0,9.0,68.0
9121.0,894.0,20.0,69.0,6.0,high,1,2.0,1.0,0.0,95.0,fast,0,1955093,2016,main_task,21.0,12.0,0.0,69.0
9121.0,895.0,20.0,70.0,6.0,high,5,0.0,0.0,1.0,1102.0,slow,0,1957202,2018,main_task,21.0,17.0,12.0,70.0
9121.0,896.0,20.0,71.0,6.0,high,1,1.0,1.0,1.0,599.0,medium,0,1958808,2020,main_task,21.0,12.0,1.0,71.0
9121.0,897.0,20.0,72.0,6.0,high,6,1.0,1.0,1.0,562.0,medium,0,1960377,2022,main_task,21.0,13.0,10.0,72.0
9121.0,898.0,20.0,73.0,6.0,high,2,2.0,2.0,1.0,955.0,medium,0,1962338,2024,main_task,21.0,16.0,11.0,73.0
9121.0,899.0,20.0,74.0,6.0,high,3,0.0,0.0,1.0,801.0,medium,0,1964145,2026,main_task,21.0,12.0,8.0,74.0
9121.0,900.0,20.0,75.0,6.0,high,3,0.0,0.0,1.0,1171.0,slow,0,1966323,2028,main_task,21.0,12.0,9.0,75.0
9121.0,901.0,20.0,76.0,6.0,high,4,2.0,2.0,1.0,541.0,medium,0,1967870,2030,main_task,21.0,15.0,10.0,76.0
9121.0,902.0,20.0,77.0,6.0,high,6,1.0,1.0,1.0,548.0,medium,0,1969424,2032,main_task,21.0,13.0,11.0,77.0
9121.0,903.0,20.0,78.0,6.0,high,3,0.0,0.0,1.0,652.0,medium,0,1971082,2034,main_task,21.0,12.0,10.0,78.0
9121.0,904.0,20.0,79.0,6.0,high,6,1.0,1.0,1.0,518.0,medium,0,1972607,2036,main_task,21.0,13.0,12.0,79.0
9121.0,905.0,20.0,80.0,6.0,high,5,0.0,0.0,1.0,747.0,medium,0,1974361,2038,main_task,21.0,17.0,13.0,80.0
9121.0,906.0,20.0,81.0,6.0,high,2,2.0,2.0,1.0,582.0,medium,0,1975949,2040,main_task,21.0,16.0,12.0,81.0
9121.0,907.0,20.0,82.0,6.0,high,1,1.0,1.0,1.0,547.0,medium,0,1977503,2042,main_task,21.0,12.0,2.0,82.0
9121.0,908.0,20.0,83.0,6.0,high,5,0.0,0.0,1.0,613.0,medium,0,1979123,2044,main_task,21.0,17.0,14.0,83.0
9121.0,909.0,20.0,84.0,6.0,high,6,1.0,1.0,1.0,631.0,medium,0,1980760,2046,main_task,21.0,13.0,13.0,84.0
9121.0,910.0,20.0,85.0,6.0,high,2,2.0,2.0,1.0,505.0,medium,0,1982272,2048,main_task,21.0,16.0,13.0,85.0
9121.0,911.0,20.0,86.0,6.0,high,4,2.0,2.0,1.0,526.0,medium,0,1983804,2050,main_task,21.0,15.0,11.0,86.0
9121.0,912.0,20.0,87.0,6.0,high,4,2.0,2.0,1.0,534.0,medium,0,1985344,2052,main_task,21.0,15.0,12.0,87.0
9121.0,913.0,20.0,88.0,6.0,high,1,1.0,1.0,1.0,541.0,medium,0,1986891,2054,main_task,21.0,12.0,3.0,88.0
9121.0,914.0,20.0,89.0,6.0,high,3,0.0,0.0,1.0,671.0,medium,0,1988568,2056,main_task,21.0,12.0,11.0,89.0
9121.0,915.0,20.0,90.0,6.0,high,5,0.0,0.0,1.0,632.0,medium,0,1990207,2058,main_task,21.0,17.0,15.0,90.0
9121.0,916.0,21.0,1.0,2.0,low,1,0.0,2.0,0.0,421.0,fast,0,1993883,2062,main_task,20.0,17.0,0.0,1.0
9121.0,917.0,21.0,2.0,2.0,low,2,0.0,2.0,0.0,332.0,fast,0,1995218,2064,main_task,20.0,12.0,0.0,2.0
9121.0,918.0,21.0,3.0,2.0,low,1,1.0,2.0,0.0,246.0,fast,0,1996471,2066,main_task,20.0,17.0,0.0,3.0
9121.0,919.0,21.0,4.0,2.0,low,1,1.0,2.0,0.0,309.0,fast,0,1997786,2068,main_task,20.0,17.0,0.0,4.0
9121.0,920.0,21.0,5.0,2.0,low,2,1.0,2.0,0.0,369.0,fast,0,1999161,2070,main_task,20.0,12.0,0.0,5.0
9121.0,921.0,21.0,6.0,2.0,low,2,2.0,2.0,1.0,316.0,fast,0,2000484,2072,main_task,20.0,12.0,1.0,6.0
9121.0,922.0,21.0,7.0,2.0,low,1,2.0,2.0,1.0,329.0,fast,0,2001821,2074,main_task,20.0,17.0,1.0,7.0
9121.0,923.0,21.0,8.0,2.0,low,2,2.0,2.0,1.0,491.0,fast,0,2003319,2076,main_task,20.0,12.0,2.0,8.0
9121.0,924.0,21.0,9.0,2.0,low,2,2.0,2.0,1.0,351.0,fast,0,2004676,2078,main_task,20.0,12.0,3.0,9.0
9121.0,925.0,21.0,10.0,2.0,low,1,2.0,2.0,1.0,348.0,fast,0,2006031,2080,main_task,20.0,17.0,2.0,10.0
9121.0,926.0,21.0,11.0,2.0,low,2,2.0,2.0,1.0,348.0,fast,0,2007386,2082,main_task,20.0,12.0,4.0,11.0
9121.0,927.0,21.0,12.0,2.0,low,1,2.0,2.0,1.0,319.0,fast,0,2008712,2084,main_task,20.0,17.0,3.0,12.0
9121.0,928.0,21.0,13.0,2.0,low,1,2.0,2.0,1.0,302.0,fast,0,2010021,2086,main_task,20.0,17.0,4.0,13.0
9121.0,929.0,21.0,14.0,2.0,low,2,2.0,2.0,1.0,264.0,fast,0,2011291,2088,main_task,20.0,12.0,5.0,14.0
9121.0,930.0,21.0,15.0,2.0,low,2,2.0,2.0,1.0,319.0,fast,0,2012616,2090,main_task,20.0,12.0,6.0,15.0
9121.0,931.0,21.0,16.0,2.0,low,1,2.0,2.0,1.0,415.0,fast,0,2014039,2092,main_task,20.0,17.0,5.0,16.0
9121.0,932.0,21.0,17.0,2.0,low,2,2.0,2.0,1.0,534.0,medium,0,2015584,2094,main_task,20.0,12.0,7.0,17.0
9121.0,933.0,21.0,18.0,2.0,low,1,2.0,2.0,1.0,366.0,fast,0,2016958,2096,main_task,20.0,17.0,6.0,18.0
9121.0,934.0,21.0,19.0,2.0,low,1,2.0,2.0,1.0,463.0,fast,0,2018430,2098,main_task,20.0,17.0,7.0,19.0
9121.0,935.0,21.0,20.0,2.0,low,2,2.0,2.0,1.0,375.0,fast,0,2019813,2100,main_task,20.0,12.0,8.0,20.0
9121.0,936.0,21.0,21.0,2.0,low,2,2.0,2.0,1.0,311.0,fast,0,2021132,2102,main_task,20.0,12.0,9.0,21.0
9121.0,937.0,21.0,22.0,2.0,low,1,2.0,2.0,1.0,330.0,fast,0,2022470,2104,main_task,20.0,17.0,8.0,22.0
9121.0,938.0,21.0,23.0,2.0,low,2,2.0,2.0,1.0,441.0,fast,0,2023919,2106,main_task,20.0,12.0,10.0,23.0
9121.0,939.0,21.0,24.0,2.0,low,1,2.0,2.0,1.0,351.0,fast,0,2025278,2108,main_task,20.0,17.0,9.0,24.0
9121.0,940.0,21.0,25.0,2.0,low,1,2.0,2.0,1.0,344.0,fast,0,2026629,2110,main_task,20.0,17.0,10.0,25.0
9121.0,941.0,21.0,26.0,2.0,low,2,2.0,2.0,1.0,294.0,fast,0,2027932,2112,main_task,20.0,12.0,11.0,26.0
9121.0,942.0,21.0,27.0,2.0,low,1,2.0,2.0,1.0,420.0,fast,0,2029359,2114,main_task,20.0,17.0,11.0,27.0
9121.0,943.0,21.0,28.0,2.0,low,1,2.0,2.0,1.0,378.0,fast,0,2030745,2116,main_task,20.0,17.0,12.0,28.0
9121.0,944.0,21.0,29.0,2.0,low,2,2.0,2.0,1.0,577.0,medium,0,2032329,2118,main_task,20.0,12.0,12.0,29.0
9121.0,945.0,21.0,30.0,2.0,low,2,2.0,1.0,0.0,571.0,medium,0,2033907,2120,main_task,20.0,inf,0.0,30.0
9121.0,946.0,23.0,1.0,3.0,low,1,0.0,0.0,1.0,765.0,medium,0,2039235,2124,main_task,15.0,15.0,1.0,1.0
9121.0,947.0,23.0,2.0,3.0,low,2,0.0,2.0,0.0,402.0,fast,0,2040645,2126,main_task,15.0,15.0,0.0,2.0
9121.0,948.0,23.0,3.0,3.0,low,3,0.0,2.0,0.0,409.0,fast,0,2042061,2128,main_task,15.0,15.0,0.0,3.0
9121.0,949.0,23.0,4.0,3.0,low,1,0.0,0.0,1.0,413.0,fast,0,2043481,2130,main_task,15.0,15.0,2.0,4.0
9121.0,950.0,23.0,5.0,3.0,low,3,1.0,2.0,0.0,336.0,fast,0,2044824,2132,main_task,15.0,15.0,0.0,5.0
9121.0,951.0,23.0,6.0,3.0,low,2,1.0,2.0,0.0,308.0,fast,0,2046140,2134,main_task,15.0,15.0,0.0,6.0
9121.0,952.0,23.0,7.0,3.0,low,2,2.0,2.0,1.0,482.0,fast,0,2047628,2136,main_task,15.0,15.0,1.0,7.0
9121.0,953.0,23.0,8.0,3.0,low,3,2.0,2.0,1.0,329.0,fast,0,2048964,2138,main_task,15.0,15.0,1.0,8.0
9121.0,954.0,23.0,9.0,3.0,low,1,0.0,0.0,1.0,334.0,fast,0,2050305,2140,main_task,15.0,15.0,3.0,9.0
9121.0,955.0,23.0,10.0,3.0,low,1,0.0,0.0,1.0,594.0,medium,0,2051907,2142,main_task,15.0,15.0,4.0,10.0
9121.0,956.0,23.0,11.0,3.0,low,2,2.0,2.0,1.0,871.0,medium,0,2053784,2144,main_task,15.0,15.0,2.0,11.0
9121.0,957.0,23.0,12.0,3.0,low,3,2.0,2.0,1.0,628.0,medium,0,2055419,2146,main_task,15.0,15.0,2.0,12.0
9121.0,958.0,23.0,13.0,3.0,low,2,2.0,2.0,1.0,519.0,medium,0,2056943,2148,main_task,15.0,15.0,3.0,13.0
9121.0,959.0,23.0,14.0,3.0,low,3,2.0,2.0,1.0,467.0,fast,0,2058418,2150,main_task,15.0,15.0,3.0,14.0
9121.0,960.0,23.0,15.0,3.0,low,1,0.0,0.0,1.0,383.0,fast,0,2059809,2152,main_task,15.0,15.0,5.0,15.0
9121.0,961.0,23.0,16.0,3.0,low,3,2.0,2.0,1.0,547.0,medium,0,2061362,2154,main_task,15.0,15.0,4.0,16.0
9121.0,962.0,23.0,17.0,3.0,low,2,2.0,2.0,1.0,470.0,fast,0,2062839,2156,main_task,15.0,15.0,4.0,17.0
9121.0,963.0,23.0,18.0,3.0,low,1,0.0,0.0,1.0,872.0,medium,0,2064718,2158,main_task,15.0,15.0,6.0,18.0
9121.0,964.0,23.0,19.0,3.0,low,1,0.0,0.0,1.0,562.0,medium,0,2066286,2160,main_task,15.0,15.0,7.0,19.0
9121.0,965.0,23.0,20.0,3.0,low,2,2.0,2.0,1.0,439.0,fast,0,2067733,2162,main_task,15.0,15.0,5.0,20.0
9121.0,966.0,23.0,21.0,3.0,low,3,2.0,2.0,1.0,510.0,medium,0,2069250,2164,main_task,15.0,15.0,5.0,21.0
9121.0,967.0,23.0,22.0,3.0,low,3,2.0,2.0,1.0,486.0,fast,0,2070743,2166,main_task,15.0,15.0,6.0,22.0
9121.0,968.0,23.0,23.0,3.0,low,1,0.0,0.0,1.0,544.0,medium,0,2072294,2168,main_task,15.0,15.0,8.0,23.0
9121.0,969.0,23.0,24.0,3.0,low,1,0.0,0.0,1.0,706.0,medium,0,2074007,2170,main_task,15.0,15.0,9.0,24.0
9121.0,970.0,23.0,25.0,3.0,low,2,2.0,2.0,1.0,454.0,fast,0,2075467,2172,main_task,15.0,15.0,6.0,25.0
9121.0,971.0,23.0,26.0,3.0,low,1,0.0,0.0,1.0,498.0,fast,0,2076971,2174,main_task,15.0,15.0,10.0,26.0
9121.0,972.0,23.0,27.0,3.0,low,3,2.0,2.0,1.0,472.0,fast,0,2078450,2176,main_task,15.0,15.0,7.0,27.0
9121.0,973.0,23.0,28.0,3.0,low,2,2.0,2.0,1.0,437.0,fast,0,2079894,2178,main_task,15.0,15.0,7.0,28.0
9121.0,974.0,23.0,29.0,3.0,low,3,2.0,2.0,1.0,477.0,fast,0,2081378,2180,main_task,15.0,15.0,8.0,29.0
9121.0,975.0,23.0,30.0,3.0,low,2,2.0,2.0,1.0,434.0,fast,0,2082820,2182,main_task,15.0,15.0,8.0,30.0
9121.0,976.0,23.0,31.0,3.0,low,1,0.0,0.0,1.0,408.0,fast,0,2084233,2184,main_task,15.0,15.0,11.0,31.0
9121.0,977.0,23.0,32.0,3.0,low,3,2.0,2.0,1.0,589.0,medium,0,2085828,2186,main_task,15.0,15.0,9.0,32.0
9121.0,978.0,23.0,33.0,3.0,low,2,2.0,2.0,1.0,530.0,medium,0,2087365,2188,main_task,15.0,15.0,9.0,33.0
9121.0,979.0,23.0,34.0,3.0,low,2,2.0,2.0,1.0,541.0,medium,0,2088913,2190,main_task,15.0,15.0,10.0,34.0
9121.0,980.0,23.0,35.0,3.0,low,1,0.0,0.0,1.0,597.0,medium,0,2090517,2192,main_task,15.0,15.0,12.0,35.0
9121.0,981.0,23.0,36.0,3.0,low,3,2.0,2.0,1.0,536.0,medium,0,2092060,2194,main_task,15.0,15.0,10.0,36.0
9121.0,982.0,23.0,37.0,3.0,low,3,2.0,2.0,1.0,1008.0,slow,0,2094075,2196,main_task,15.0,15.0,11.0,37.0
9121.0,983.0,23.0,38.0,3.0,low,2,2.0,2.0,1.0,495.0,fast,0,2095576,2198,main_task,15.0,15.0,11.0,38.0
9121.0,984.0,23.0,39.0,3.0,low,3,2.0,2.0,1.0,514.0,medium,0,2097096,2200,main_task,15.0,15.0,12.0,39.0
9121.0,985.0,23.0,40.0,3.0,low,1,0.0,0.0,1.0,526.0,medium,0,2098628,2202,main_task,15.0,15.0,13.0,40.0
9121.0,986.0,23.0,41.0,3.0,low,2,2.0,2.0,1.0,546.0,medium,0,2100182,2204,main_task,15.0,15.0,12.0,41.0
9121.0,987.0,23.0,42.0,3.0,low,2,2.0,2.0,1.0,682.0,medium,0,2101870,2206,main_task,15.0,15.0,13.0,42.0
9121.0,988.0,23.0,43.0,3.0,low,1,0.0,0.0,1.0,502.0,medium,0,2103380,2208,main_task,15.0,15.0,14.0,43.0
9121.0,989.0,23.0,44.0,3.0,low,3,2.0,2.0,1.0,437.0,fast,0,2104823,2210,main_task,15.0,15.0,13.0,44.0
9121.0,990.0,23.0,45.0,3.0,low,1,0.0,0.0,1.0,552.0,medium,0,2106382,2212,main_task,15.0,15.0,15.0,45.0
9187.0,1.0,3.0,1.0,2.0,low,1,0.0,0.0,1.0,662.1000001430511,medium,0,584355,202,main_task,7.0,18.0,1.0,1.0
9187.0,2.0,3.0,2.0,2.0,low,2,2.0,2.0,1.0,621.8999998569489,medium,0,586001,204,main_task,7.0,13.0,1.0,2.0
9187.0,3.0,3.0,3.0,2.0,low,1,0.0,0.0,1.0,448.5,fast,0,587475,206,main_task,7.0,18.0,2.0,3.0
9187.0,4.0,3.0,4.0,2.0,low,2,2.0,2.0,1.0,291.7999999523163,fast,0,588780,208,main_task,7.0,13.0,2.0,4.0
