sona_id,trial_in_experiment,block,time_elapsed,rt,stimulus,key_press,correct,trial_in_block,set_size,load_condition
10000,1,1.0,797002,698.8999996185303,1,0.0,True,1,4,high
10000,2,1.0,798736,710.0999984741211,2,2.0,True,2,4,high
10000,3,1.0,800252,479.5999984741211,1,0.0,True,3,4,high
10000,4,1.0,801869,592.8999996185303,1,0.0,True,4,4,high
10000,5,1.0,803434,539.2999992370605,2,2.0,True,5,4,high
10000,6,1.0,804883,418.8999996185303,2,0.0,False,6,4,high
10000,7,1.0,806402,499.3999996185303,1,0.0,True,7,4,high
10000,8,1.0,807767,344.70000076293945,2,2.0,True,8,4,high
10000,9,1.0,809369,582.3999996185303,2,2.0,True,9,4,high
10000,10,1.0,810946,556.2000007629395,1,0.0,True,10,4,high
10000,11,1.0,812518,548.3000011444092,2,2.0,True,11,4,high
10000,12,1.0,814019,474.8000011444092,1,0.0,True,12,4,high
10000,13,1.0,815452,408.6000003814697,1,2.0,False,13,4,high
10000,14,1.0,817118,632.5,2,2.0,True,14,4,high
10000,15,1.0,818521,368.0,1,0.0,True,15,4,high
10000,16,1.0,819952,412.8999996185303,1,0.0,True,16,4,high
10000,17,1.0,821452,480.0999984741211,2,2.0,True,17,4,high
10000,18,1.0,822986,500.79999923706055,2,2.0,True,18,4,high
10000,19,1.0,824352,341.0,1,0.0,True,19,4,high
10000,20,1.0,825902,524.6000003814697,2,2.0,True,20,4,high
10000,21,1.0,845119,722.0,4,2.0,False,21,4,high
10000,22,1.0,846569,425.1000003814697,4,1.0,False,22,4,high
10000,23,1.0,847886,295.6000003814697,3,0.0,False,23,4,high
10000,24,1.0,849284,374.8000011444092,4,0.0,True,24,4,high
10000,25,1.0,850670,368.3999996185303,3,1.0,False,25,4,high
10000,26,1.0,852086,387.6999988555908,3,2.0,True,26,4,high
10000,27,1.0,853576,468.3999996185303,4,0.0,True,27,4,high
10000,28,1.0,855270,675.5,4,1.0,False,28,4,high
10000,29,1.0,856902,607.1000003814697,3,0.0,False,29,4,high
10000,30,1.0,858570,641.8999996185303,4,0.0,True,30,4,high
10000,31,1.0,860003,411.9000015258789,3,2.0,True,31,4,high
10000,32,1.0,861836,811.1000003814697,3,2.0,True,32,4,high
10000,33,1.0,863319,455.6000003814697,4,0.0,True,33,4,high
10000,34,1.0,864769,427.5,3,2.0,True,34,4,high
10000,35,1.0,866286,501.6000003814697,4,0.0,True,35,4,high
10000,36,1.0,867769,459.0,4,0.0,True,36,4,high
10000,37,1.0,869251,462.1999988555908,3,2.0,True,37,4,high
10000,38,1.0,870836,577.7999992370605,3,2.0,True,38,4,high
10000,39,1.0,872284,424.1999988555908,4,0.0,True,39,4,high
10000,40,2.0,900520,619.6000003814697,1,0.0,True,1,3,low
10000,41,2.0,901987,431.8999996185303,1,0.0,True,2,3,low
10000,42,2.0,903370,355.8000011444092,1,0.0,True,3,3,low
10000,43,2.0,904704,309.8999996185303,1,0.0,True,4,3,low
10000,44,2.0,905987,256.6000003814697,1,0.0,True,5,3,low
10000,45,2.0,907269,252.3000011444092,1,0.0,False,6,3,low
10000,46,2.0,908619,330.6000003814697,1,0.0,False,7,3,low
10000,47,2.0,910216,586.6999988555908,1,2.0,False,8,3,low
10000,48,2.0,911500,270.6000003814697,1,1.0,True,9,3,low
10000,49,2.0,912854,326.20000076293945,1,1.0,True,10,3,low
10000,50,2.0,914237,360.29999923706055,1,1.0,True,11,3,low
10000,51,2.0,915587,322.8999996185303,1,1.0,True,12,3,low
10000,52,2.0,917087,478.0,1,2.0,False,13,3,low
10000,53,2.0,918470,355.5,1,1.0,False,14,3,low
10000,54,2.0,919802,309.0,1,0.0,True,15,3,low
10000,55,2.0,921120,288.6999988555908,1,0.0,True,16,3,low
10000,56,2.0,922420,277.29999923706055,1,0.0,True,17,3,low
10000,57,2.0,923737,292.5,1,0.0,False,18,3,low
10000,58,2.0,925004,238.39999961853027,1,2.0,True,19,3,low
10000,59,2.0,926287,257.0,1,2.0,True,20,3,low
10000,60,2.0,927604,284.29999923706055,1,2.0,True,21,3,low
10000,61,2.0,928970,336.8999996185303,1,2.0,True,22,3,low
10000,62,2.0,930304,312.6000003814697,1,2.0,False,23,3,low
10000,63,2.0,931537,207.60000038146973,1,1.0,True,24,3,low
10000,64,2.0,940620,,3,-1.0,False,25,3,low
10000,65,2.0,942571,927.5,3,0.0,False,26,3,low
10000,66,2.0,944221,627.0,3,0.0,False,27,3,low
10000,67,2.0,945514,272.6999988555908,3,1.0,True,28,3,low
10000,68,2.0,946804,274.5,3,1.0,True,29,3,low
10000,69,2.0,948087,253.29999923706052,3,1.0,True,30,3,low
10000,70,2.0,949438,331.79999923706055,3,1.0,True,31,3,low
10000,71,2.0,950721,257.20000076293945,3,1.0,True,32,3,low
10000,72,2.0,952021,277.3999996185303,3,1.0,False,33,3,low
10000,73,2.0,953288,247.79999923706052,3,2.0,False,34,3,low
10000,74,2.0,954507,187.8000011444092,3,0.0,True,35,3,low
10000,75,2.0,955754,215.60000038146973,3,0.0,True,36,3,low
10000,76,2.0,957020,240.20000076293945,3,0.0,True,37,3,low
10000,77,2.0,958237,187.70000076293945,3,0.0,True,38,3,low
10000,78,2.0,959571,304.29999923706055,3,0.0,False,39,3,low
10000,79,2.0,960683,79.0,3,2.0,False,40,3,low
10000,80,2.0,961904,209.5999984741211,3,1.0,True,41,3,low
10000,81,2.0,963088,157.4000015258789,3,1.0,True,42,3,low
10000,82,2.0,964203,94.10000038146973,3,1.0,True,43,3,low
10000,83,2.0,965454,215.79999923706052,3,1.0,False,44,3,low
10000,84,2.0,966587,100.5,3,2.0,False,45,3,low
10000,85,2.0,967671,53.60000038146973,3,0.0,True,46,3,low
10000,86,2.0,968788,96.30000114440918,3,0.0,True,47,3,low
10000,87,2.0,970021,212.60000038146973,3,0.0,True,48,3,low
10000,88,3.0,1011895,375.5,1,0.0,False,1,2,low
10000,89,3.0,1013439,521.1000003814697,2,2.0,False,2,2,low
10000,90,3.0,1014671,205.0,1,1.0,True,3,2,low
10000,91,3.0,1016051,334.8999996185303,1,1.0,True,4,2,low
10000,92,3.0,1017422,358.9000015258789,2,2.0,False,5,2,low
10000,93,3.0,1018851,409.0,2,0.0,True,6,2,low
10000,94,3.0,1020255,392.79999923706055,1,1.0,True,7,2,low
10000,95,3.0,1021603,329.6000003814697,2,0.0,True,8,2,low
10000,96,3.0,1023007,390.29999923706055,2,0.0,True,9,2,low
10000,97,3.0,1024485,469.70000076293945,1,1.0,True,10,2,low
10000,98,3.0,1025889,387.8000011444092,2,1.0,False,11,2,low
10000,99,3.0,1027364,447.6000003814697,1,0.0,False,12,2,low
10000,100,3.0,1029000,627.8999996185303,1,1.0,True,13,2,low
10000,101,3.0,1030287,265.0,2,0.0,True,14,2,low
10000,102,3.0,1031722,410.20000076293945,1,1.0,True,15,2,low
10000,103,3.0,1033205,458.0999984741211,2,0.0,True,16,2,low
10000,104,3.0,1034705,476.6000003814697,2,0.0,True,17,2,low
10000,105,3.0,1036184,448.8999996185303,1,1.0,True,18,2,low
10000,106,3.0,1037722,518.2999992370605,1,1.0,True,19,2,low
10000,107,3.0,1039395,644.1999988555908,2,0.0,True,20,2,low
10000,108,3.0,1040855,432.8000011444092,1,1.0,True,21,2,low
10000,109,3.0,1042372,492.8999996185303,2,0.0,True,22,2,low
10000,110,3.0,1043884,482.8999996185303,2,0.0,True,23,2,low
10000,111,3.0,1045340,440.0999984741211,1,1.0,True,24,2,low
10000,112,3.0,1046722,360.1999988555908,1,0.0,False,25,2,low
10000,113,3.0,1048356,620.3999996185303,2,0.0,True,26,2,low
10000,114,3.0,1049835,467.70000076293945,2,0.0,True,27,2,low
10000,115,3.0,1051255,406.79999923706055,1,1.0,True,28,2,low
10000,116,3.0,1052638,358.1000003814697,2,0.0,True,29,2,low
10000,117,3.0,1054080,424.1000003814697,1,1.0,True,30,2,low
10000,118,4.0,1088620,428.0,1,0.0,True,1,6,high
10000,119,4.0,1090229,580.0,2,1.0,False,2,6,high
10000,120,4.0,1091833,566.3999996185303,3,1.0,True,3,6,high
10000,121,4.0,1093653,790.7999992370605,4,2.0,False,4,6,high
10000,122,4.0,1095466,776.7999992370605,5,0.0,True,5,6,high
10000,123,4.0,1097352,876.2000007629395,6,1.0,False,6,6,high
10000,124,4.0,1099156,787.3999996185303,2,1.0,False,7,6,high
10000,125,4.0,1100877,707.4000015258789,6,2.0,True,8,6,high
10000,126,4.0,1102628,720.6999988555908,1,0.0,True,9,6,high
10000,127,4.0,1104824,1166.1000003814695,4,1.0,False,10,6,high
10000,128,4.0,1106672,826.6000003814697,2,0.0,False,11,6,high
10000,129,4.0,1108536,836.5,5,0.0,True,12,6,high
10000,130,4.0,1110410,868.0,3,2.0,False,13,6,high
10000,131,4.0,1112390,954.2000007629396,3,1.0,True,14,6,high
10000,132,4.0,1114306,908.7000007629396,5,2.0,False,15,6,high
10000,133,4.0,1116633,1305.0,4,2.0,False,16,6,high
10000,134,4.0,1118723,1069.2999992370603,6,1.0,False,17,6,high
10000,135,4.0,1120456,708.5,1,0.0,True,18,6,high
10000,136,4.0,1121987,509.70000076293945,3,0.0,False,19,6,high
10000,137,4.0,1123857,854.7000007629395,4,1.0,False,20,6,high
10000,138,4.0,1125640,763.4000015258789,1,2.0,False,21,6,high
10000,139,4.0,1127606,942.4000015258788,2,0.0,False,22,6,high
10000,140,4.0,1129756,1120.8000011444092,5,0.0,True,23,6,high
10000,141,4.0,1131623,839.8000011444092,6,1.0,False,24,6,high
10000,142,4.0,1133671,1028.6000003814695,5,0.0,True,25,6,high
10000,143,4.0,1135640,952.1000003814696,4,2.0,False,26,6,high
10000,144,4.0,1137540,866.6000003814697,2,0.0,False,27,6,high
10000,145,4.0,1139490,928.7999992370604,1,1.0,False,28,6,high
10000,146,4.0,1141607,1093.0,3,2.0,False,29,6,high
10000,147,4.0,1143472,838.1999988555908,3,0.0,False,30,6,high
10000,148,4.0,1145574,1082.1000003814695,2,0.0,False,31,6,high
10000,149,4.0,1148240,1633.2000007629397,6,1.0,False,32,6,high
10000,150,4.0,1150807,1540.5,6,1.0,False,33,6,high
10000,151,4.0,1152774,936.1999988555908,5,0.0,True,34,6,high
10000,152,4.0,1154724,913.8999996185304,4,1.0,False,35,6,high
10000,153,4.0,1156740,995.7000007629396,5,0.0,True,36,6,high
10000,154,4.0,1159407,1641.3999996185305,6,2.0,True,37,6,high
10000,155,4.0,1161273,836.5,1,0.0,True,38,6,high
10000,156,4.0,1163357,1063.2000007629397,2,1.0,False,39,6,high
10000,157,4.0,1165290,903.0,4,2.0,False,40,6,high
10000,158,4.0,1167652,1329.2000007629397,3,2.0,False,41,6,high
10000,159,4.0,1170190,1523.0,2,0.0,False,42,6,high
10000,160,4.0,1172324,1105.5,5,0.0,True,43,6,high
10000,161,4.0,1174040,681.7000007629395,1,0.0,True,44,6,high
10000,162,4.0,1175874,812.0,1,0.0,True,45,6,high
10000,163,4.0,1177574,677.0999984741211,5,0.0,True,46,6,high
10000,164,4.0,1179690,1084.1000003814695,6,0.0,False,47,6,high
10000,165,4.0,1181691,966.2999992370604,4,0.0,True,48,6,high
10000,166,4.0,1183807,1091.2999992370603,6,2.0,True,49,6,high
10000,167,4.0,1185488,650.2999992370605,3,0.0,False,50,6,high
10000,168,4.0,1187388,882.0,1,0.0,True,51,6,high
10000,169,4.0,1189707,1310.2000007629397,4,0.0,True,52,6,high
10000,170,4.0,1191657,931.5,2,0.0,False,53,6,high
10000,171,4.0,1193724,1036.7999992370603,6,2.0,True,54,6,high
10000,172,4.0,1195440,689.6000003814697,2,1.0,False,55,6,high
10000,173,4.0,1197440,974.2000007629396,5,0.0,True,56,6,high
10000,174,4.0,1199507,1047.8000011444092,3,0.0,False,57,6,high
10000,175,4.0,1201674,1134.8000011444092,3,1.0,True,58,6,high
10000,176,4.0,1203407,699.8999996185303,5,0.0,True,59,6,high
10000,177,4.0,1205090,654.3999996185303,1,0.0,True,60,6,high
10000,178,4.0,1207091,970.8999996185304,2,0.0,False,61,6,high
10000,179,4.0,1209406,1284.3000011444092,4,0.0,True,62,6,high
10000,180,4.0,1211057,624.1000003814697,1,0.0,True,63,6,high
10000,181,4.0,1213174,1083.1000003814695,6,2.0,True,64,6,high
10000,182,4.0,1214841,646.6000003814697,3,1.0,True,65,6,high
10000,183,4.0,1216491,619.7000007629395,4,1.0,False,66,6,high
10000,184,4.0,1218205,692.6000003814697,4,2.0,False,67,6,high
10000,185,4.0,1219807,596.6000003814697,1,0.0,True,68,6,high
10000,186,4.0,1222838,,2,-1.0,False,69,6,high
10000,187,4.0,1225006,1154.599998474121,5,0.0,True,70,6,high
10000,188,4.0,1227175,1139.2999992370603,3,2.0,False,71,6,high
10000,189,4.0,1228991,798.6000003814697,6,1.0,False,72,6,high
10000,190,4.0,1230341,322.1999988555908,3,0.0,False,73,6,high
10000,191,4.0,1232257,884.1000003814697,4,2.0,False,74,6,high
10000,192,4.0,1233841,563.7000007629395,6,1.0,False,75,6,high
10000,193,4.0,1235491,630.0,5,0.0,True,76,6,high
10000,194,4.0,1237073,555.5,1,0.0,True,77,6,high
10000,195,4.0,1238741,639.8999996185303,5,0.0,True,78,6,high
10000,196,4.0,1240608,840.2999992370605,2,0.0,False,79,6,high
10000,197,4.0,1242574,946.8999996185304,6,2.0,True,80,6,high
10000,198,4.0,1244175,576.0999984741211,1,0.0,True,81,6,high
10000,199,4.0,1247225,,2,-1.0,False,82,6,high
10000,200,4.0,1248957,705.6999988555908,2,2.0,True,83,6,high
10000,201,4.0,1250957,982.8999996185304,3,1.0,True,84,6,high
10000,202,4.0,1253158,1177.2999992370603,4,2.0,False,85,6,high
10000,203,4.0,1255075,898.6999988555908,4,1.0,False,86,6,high
10000,204,4.0,1257108,1011.5,6,2.0,True,87,6,high
10000,205,4.0,1258842,706.0,3,1.0,True,88,6,high
10000,206,4.0,1260442,567.7999992370605,5,0.0,True,89,6,high
10000,207,4.0,1262092,628.5,1,0.0,True,90,6,high
10000,208,5.0,1280359,554.8000011444092,1,0.0,False,1,5,high
10000,209,5.0,1281892,508.1000003814697,2,1.0,False,2,5,high
10000,210,5.0,1283359,434.20000076293945,3,2.0,True,3,5,high
10000,211,5.0,1285041,645.1000003814697,4,0.0,False,4,5,high
10000,212,5.0,1286558,506.5999984741211,5,1.0,False,5,5,high
10000,213,5.0,1288131,535.1000003814697,1,2.0,False,6,5,high
10000,214,5.0,1289886,737.2999992370605,3,0.0,False,7,5,high
10000,215,5.0,1291275,382.5,5,1.0,False,8,5,high
10000,216,5.0,1292638,335.20000076293945,2,2.0,True,9,5,high
10000,217,5.0,1294242,584.8000011444092,4,1.0,True,10,5,high
10000,218,5.0,1295892,615.3000011444092,2,2.0,True,11,5,high
10000,219,5.0,1297625,704.5,2,2.0,True,12,5,high
10000,220,5.0,1299142,481.79999923706055,4,1.0,True,13,5,high
10000,221,5.0,1300526,360.29999923706055,1,0.0,False,14,5,high
10000,222,5.0,1302242,691.5,5,1.0,False,15,5,high
10000,223,5.0,1304176,909.5,3,1.0,False,16,5,high
10000,224,5.0,1305976,781.1000003814697,5,0.0,True,17,5,high
10000,225,5.0,1307709,703.0999984741211,1,0.0,False,18,5,high
10000,226,5.0,1309826,1087.5,4,1.0,True,19,5,high
10000,227,5.0,1311509,655.3000011444092,4,1.0,True,20,5,high
10000,228,5.0,1313293,759.2999992370605,2,2.0,True,21,5,high
10000,229,5.0,1314859,534.5,3,0.0,False,22,5,high
10000,230,5.0,1316659,775.3999996185303,1,1.0,True,23,5,high
10000,231,5.0,1318704,1017.6000003814696,5,2.0,False,24,5,high
10000,232,5.0,1320376,640.6999988555908,3,1.0,False,25,5,high
10000,233,5.0,1322108,705.9000015258789,3,0.0,False,26,5,high
10000,234,5.0,1323940,820.1000003814697,1,1.0,True,27,5,high
10000,235,5.0,1325824,859.1000003814697,4,1.0,True,28,5,high
10000,236,5.0,1327741,905.2999992370604,5,2.0,False,29,5,high
10000,237,5.0,1329692,932.0999984741212,2,2.0,True,30,5,high
10000,238,5.0,1331981,1255.0,5,1.0,False,31,5,high
10000,239,5.0,1334142,1133.2999992370603,1,2.0,False,32,5,high
10000,240,5.0,1335976,810.5,3,0.0,False,33,5,high
10000,241,5.0,1337793,790.8000011444092,2,2.0,True,34,5,high
10000,242,5.0,1339726,903.1999988555908,1,1.0,True,35,5,high
10000,243,5.0,1341476,717.1000003814697,4,1.0,True,36,5,high
10000,244,5.0,1343243,736.0999984741211,4,1.0,True,37,5,high
10000,245,5.0,1345207,950.1000003814696,5,0.0,True,38,5,high
10000,246,5.0,1347410,1193.5,3,0.0,False,39,5,high
10000,247,5.0,1349643,1204.3999996185305,5,0.0,True,40,5,high
10000,248,5.0,1351576,905.0,3,1.0,False,41,5,high
10000,249,5.0,1353356,747.0999984741211,2,2.0,True,42,5,high
10000,250,5.0,1355309,943.3000011444092,1,1.0,True,43,5,high
10000,251,5.0,1357293,957.1000003814696,3,2.0,True,44,5,high
10000,252,5.0,1359293,966.2000007629396,4,1.0,True,45,5,high
10000,253,5.0,1360909,588.1999988555908,2,2.0,True,46,5,high
10000,254,5.0,1362743,805.5999984741211,2,2.0,True,47,5,high
10000,255,5.0,1364509,746.5,1,0.0,False,48,5,high
10000,256,5.0,1366677,1138.2999992370603,5,0.0,True,49,5,high
10000,257,5.0,1368860,1157.1000003814695,3,2.0,True,50,5,high
10000,258,5.0,1370710,817.0,4,1.0,True,51,5,high
10000,259,5.0,1372710,980.2999992370604,5,0.0,True,52,5,high
10000,260,5.0,1374460,724.3999996185303,4,1.0,True,53,5,high
10000,261,5.0,1376393,915.2999992370604,2,2.0,True,54,5,high
10000,262,5.0,1378126,714.3999996185303,1,1.0,True,55,5,high
10000,263,5.0,1379960,802.1000003814697,5,1.0,False,56,5,high
10000,264,5.0,1381576,596.0999984741211,4,1.0,True,57,5,high
10000,265,5.0,1383193,586.8999996185303,4,1.0,True,58,5,high
10000,266,5.0,1384910,691.5,3,2.0,True,59,5,high
10000,267,5.0,1386892,962.8000011444092,1,0.0,False,60,5,high
10000,268,5.0,1388943,1033.5,3,2.0,True,61,5,high
10000,269,5.0,1390677,710.6000003814697,2,2.0,True,62,5,high
10000,270,5.0,1392391,693.3000011444092,2,2.0,True,63,5,high
10000,271,5.0,1394107,697.2000007629395,4,1.0,True,64,5,high
10000,272,5.0,1395877,756.0,5,0.0,True,65,5,high
10000,273,5.0,1397671,765.9000015258789,1,2.0,False,66,5,high
10000,274,5.0,1399260,570.0,2,2.0,True,67,5,high
10000,275,5.0,1401293,1011.8999996185304,5,1.0,False,68,5,high
10000,276,5.0,1403210,891.8999996185303,3,2.0,True,69,5,high
10000,277,5.0,1404844,598.7999992370605,5,0.0,True,70,5,high
10000,278,5.0,1406560,684.1999988555908,1,1.0,True,71,5,high
10000,279,5.0,1408310,723.3000011444092,1,1.0,True,72,5,high
10000,280,5.0,1410060,726.5,4,1.0,True,73,5,high
10000,281,5.0,1411759,677.8000011444092,2,2.0,True,74,5,high
10000,282,5.0,1413494,722.9000015258789,1,1.0,True,75,5,high
10000,283,6.0,1428640,487.3999996185303,1,1.0,True,1,2,low
10000,284,6.0,1430210,562.6999988555908,2,1.0,False,2,2,low
10000,285,6.0,1431728,492.1999988555908,2,2.0,False,3,2,low
10000,286,6.0,1433544,791.8999996185303,1,1.0,True,4,2,low
10000,287,6.0,1434977,410.6999988555908,2,0.0,True,5,2,low
10000,288,6.0,1436674,675.7000007629395,1,1.0,True,6,2,low
10000,289,6.0,1438349,655.5999984741211,1,1.0,True,7,2,low
10000,290,6.0,1439936,567.0,2,0.0,True,8,2,low
10000,291,6.0,1441563,598.0,2,0.0,True,9,2,low
10000,292,6.0,1443210,622.8999996185303,1,1.0,True,10,2,low
10000,293,6.0,1444875,644.2999992370605,2,1.0,False,11,2,low
10000,294,6.0,1446690,806.2000007629395,1,1.0,True,12,2,low
10000,295,6.0,1448243,542.2000007629395,1,1.0,True,13,2,low
10000,296,6.0,1449811,556.6000003814697,2,0.0,True,14,2,low
10000,297,6.0,1451444,599.1999988555908,1,1.0,True,15,2,low
10000,298,6.0,1452928,454.20000076293945,1,1.0,True,16,2,low
10000,299,6.0,1454526,579.9000015258789,2,0.0,True,17,2,low
10000,300,6.0,1456127,570.1000003814697,2,0.0,True,18,2,low
10000,301,6.0,1457694,534.2999992370605,1,1.0,True,19,2,low
10000,302,6.0,1459493,778.3999996185303,2,0.0,True,20,2,low
10000,303,6.0,1461059,536.0,2,0.0,True,21,2,low
10000,304,6.0,1462544,454.1999988555908,1,1.0,True,22,2,low
10000,305,6.0,1464128,566.1000003814697,1,1.0,True,23,2,low
10000,306,6.0,1465577,427.8999996185303,2,0.0,True,24,2,low
10000,307,6.0,1467061,460.1999988555908,1,1.0,True,25,2,low
10000,308,6.0,1468582,500.8999996185303,2,0.0,True,26,2,low
10000,309,6.0,1470077,476.29999923706055,1,1.0,False,27,2,low
10000,310,6.0,1471527,428.29999923706055,2,0.0,True,28,2,low
10000,311,6.0,1473327,776.6000003814697,2,1.0,False,29,2,low
10000,312,6.0,1475244,879.7000007629395,1,1.0,False,30,2,low
10000,313,7.0,1491492,447.8999996185303,1,0.0,True,1,3,low
10000,314,7.0,1492944,425.0,2,1.0,True,2,3,low
10000,315,7.0,1494594,632.3000011444092,3,2.0,False,3,3,low
10000,316,7.0,1496278,663.6000003814697,3,2.0,False,4,3,low
10000,317,7.0,1498159,851.7000007629395,2,1.0,True,5,3,low
10000,318,7.0,1500044,866.1000003814697,1,0.0,True,6,3,low
10000,319,7.0,1501742,683.0,3,1.0,False,7,3,low
10000,320,7.0,1503428,666.8999996185303,1,0.0,True,8,3,low
10000,321,7.0,1505094,636.5,2,1.0,True,9,3,low
10000,322,7.0,1506911,797.7000007629395,1,0.0,True,10,3,low
10000,323,7.0,1508662,730.8999996185303,3,0.0,True,11,3,low
10000,324,7.0,1510462,775.8999996185303,3,0.0,True,12,3,low
10000,325,7.0,1512161,675.3999996185303,2,1.0,True,13,3,low
10000,326,7.0,1513945,750.7999992370605,2,1.0,True,14,3,low
10000,327,7.0,1515545,571.8999996185303,1,0.0,True,15,3,low
10000,328,7.0,1517295,727.7000007629395,2,1.0,True,16,3,low
10000,329,7.0,1518795,478.0,3,0.0,True,17,3,low
10000,330,7.0,1520463,657.8999996185303,1,0.0,True,18,3,low
10000,331,7.0,1522150,670.0,3,0.0,True,19,3,low
10000,332,7.0,1523762,590.0,2,1.0,True,20,3,low
10000,333,7.0,1525162,382.6000003814697,1,0.0,True,21,3,low
10000,334,7.0,1526678,493.0,1,0.0,True,22,3,low
10000,335,7.0,1528276,570.0,3,0.0,True,23,3,low
10000,336,7.0,1529895,611.0,1,0.0,True,24,3,low
10000,337,7.0,1531445,528.3999996185303,2,1.0,True,25,3,low
10000,338,7.0,1532878,411.3999996185303,3,0.0,True,26,3,low
10000,339,7.0,1534281,369.5,2,1.0,True,27,3,low
10000,340,7.0,1535678,375.79999923706055,2,1.0,True,28,3,low
10000,341,7.0,1537110,405.29999923706055,1,0.0,True,29,3,low
10000,342,7.0,1538521,402.0,3,0.0,True,30,3,low
10000,343,7.0,1539846,302.20000076293945,2,1.0,True,31,3,low
10000,344,7.0,1541445,571.2999992370605,1,0.0,True,32,3,low
10000,345,7.0,1543026,551.4000015258789,1,0.0,True,33,3,low
10000,346,7.0,1544677,638.6999988555908,3,0.0,True,34,3,low
10000,347,7.0,1546195,508.1000003814697,3,0.0,True,35,3,low
10000,348,7.0,1547546,327.9000015258789,2,1.0,True,36,3,low
10000,349,7.0,1548955,389.1000003814697,3,0.0,True,37,3,low
10000,350,7.0,1550526,553.1999988555908,1,0.0,True,38,3,low
10000,351,7.0,1552127,590.5,2,1.0,True,39,3,low
10000,352,7.0,1553629,478.3999996185303,2,1.0,True,40,3,low
10000,353,7.0,1555094,437.6000003814697,3,0.0,True,41,3,low
10000,354,7.0,1556495,371.1000003814697,2,1.0,True,42,3,low
10000,355,7.0,1557931,397.1000003814697,1,0.0,True,43,3,low
10000,356,7.0,1559429,479.1999988555908,1,0.0,True,44,3,low
10000,357,7.0,1561029,578.0,3,0.0,True,45,3,low
10000,358,10.0,1566079,499.29999923706055,1,0.0,False,1,2,low
10000,359,10.0,1567561,457.8000011444092,2,1.0,False,2,2,low
10000,360,10.0,1569085,488.5,2,0.0,True,3,2,low
10000,361,10.0,1570679,580.6999988555908,1,1.0,False,4,2,low
10000,362,10.0,1572179,471.20000076293945,2,0.0,True,5,2,low
10000,363,10.0,1573529,327.0,1,2.0,True,6,2,low
10000,364,10.0,1575312,753.3999996185303,1,0.0,False,7,2,low
10000,365,10.0,1576913,573.0,2,0.0,True,8,2,low
10000,366,10.0,1578411,469.3999996185303,1,2.0,True,9,2,low
10000,367,10.0,1579846,411.6000003814697,2,0.0,True,10,2,low
10000,368,10.0,1581396,529.2999992370605,2,0.0,True,11,2,low
10000,369,10.0,1582846,415.5,1,2.0,True,12,2,low
10000,370,10.0,1584473,607.2999992370605,1,2.0,True,13,2,low
10000,371,10.0,1586029,542.3999996185303,2,0.0,True,14,2,low
10000,372,10.0,1587463,411.4000015258789,1,2.0,True,15,2,low
10000,373,10.0,1589062,568.5,1,2.0,True,16,2,low
10000,374,10.0,1590594,510.0,2,0.0,True,17,2,low
10000,375,10.0,1592146,531.0,2,0.0,True,18,2,low
10000,376,10.0,1593615,443.3000011444092,1,2.0,True,19,2,low
10000,377,10.0,1595029,391.5,2,0.0,True,20,2,low
10000,378,10.0,1596563,513.2999992370605,2,0.0,True,21,2,low
10000,379,10.0,1598079,495.4000015258789,1,2.0,True,22,2,low
10000,380,10.0,1599642,531.8999996185303,2,0.0,True,23,2,low
10000,381,10.0,1601346,698.6000003814697,1,2.0,True,24,2,low
10000,382,10.0,1602821,444.20000076293945,1,0.0,False,25,2,low
10000,383,10.0,1604396,554.8999996185303,2,0.0,True,26,2,low
10000,384,10.0,1605896,468.5,2,0.0,True,27,2,low
10000,385,10.0,1607413,489.9000015258789,1,2.0,True,28,2,low
10000,386,10.0,1608913,475.0,2,0.0,False,29,2,low
10000,387,10.0,1610629,683.3999996185303,1,2.0,True,30,2,low
10000,388,11.0,1619897,556.0,1,0.0,False,1,5,high
10000,389,11.0,1621446,530.9000015258789,2,1.0,False,2,5,high
10000,390,11.0,1623263,792.4000015258789,3,0.0,False,3,5,high
10000,391,11.0,1624863,566.5999984741211,4,0.0,True,4,5,high
10000,392,11.0,1626546,664.7999992370605,5,1.0,False,5,5,high
10000,393,11.0,1628230,661.8999996185303,4,0.0,True,6,5,high
10000,394,11.0,1630009,746.8000011444092,3,2.0,True,7,5,high
10000,395,11.0,1631762,735.1000003814697,2,1.0,False,8,5,high
10000,396,11.0,1633695,901.6999988555908,1,2.0,False,9,5,high
10000,397,11.0,1635713,1002.5,5,1.0,False,10,5,high
10000,398,11.0,1637394,654.1000003814697,4,0.0,True,11,5,high
10000,399,11.0,1639113,705.5,1,0.0,False,12,5,high
10000,400,11.0,1640987,848.5,1,2.0,False,13,5,high
10000,401,11.0,1643253,1246.2999992370603,3,2.0,True,14,5,high
10000,402,11.0,1645564,1289.5,2,0.0,True,15,5,high
10000,403,11.0,1647180,597.8999996185303,5,1.0,False,16,5,high
10000,404,11.0,1649297,1087.7000007629397,3,2.0,True,17,5,high
10000,405,11.0,1651107,786.1999988555908,5,2.0,True,18,5,high
10000,406,11.0,1652880,759.7999992370605,4,0.0,True,19,5,high
10000,407,11.0,1654563,664.7999992370605,4,0.0,True,20,5,high
10000,408,11.0,1656280,698.2000007629395,2,1.0,False,21,5,high
10000,409,11.0,1658080,780.1000003814697,1,2.0,False,22,5,high
10000,410,11.0,1660230,1129.8999996185305,2,2.0,False,23,5,high
10000,411,11.0,1662030,771.5999984741211,3,0.0,False,24,5,high
10000,412,11.0,1663764,715.5,5,1.0,False,25,5,high
10000,413,11.0,1665233,450.5,1,2.0,False,26,5,high
10000,414,11.0,1666963,711.0,3,0.0,False,27,5,high
10000,415,11.0,1668850,849.6999988555908,4,0.0,True,28,5,high
10000,416,11.0,1670774,907.6999988555908,5,2.0,True,29,5,high
10000,417,11.0,1672464,675.7999992370605,5,2.0,True,30,5,high
10000,418,11.0,1674263,772.2999992370605,2,1.0,False,31,5,high
10000,419,11.0,1676297,1011.8000011444092,3,2.0,True,32,5,high
10000,420,11.0,1677914,589.5,2,0.0,True,33,5,high
10000,421,11.0,1679497,560.6999988555908,4,0.0,True,34,5,high
10000,422,11.0,1681413,889.5,1,2.0,False,35,5,high
10000,423,11.0,1683196,747.2000007629395,1,1.0,True,36,5,high
10000,424,11.0,1684914,693.4000015258789,4,0.0,True,37,5,high
10000,425,11.0,1686548,603.6000003814697,2,0.0,True,38,5,high
10000,426,11.0,1688247,673.1999988555908,5,2.0,True,39,5,high
10000,427,11.0,1690180,908.7000007629396,3,2.0,True,40,5,high
10000,428,11.0,1692047,845.0,4,0.0,True,41,5,high
10000,429,11.0,1693678,607.1000003814697,1,1.0,True,42,5,high
10000,430,11.0,1695412,726.5,2,0.0,True,43,5,high
10000,431,11.0,1697131,706.6000003814697,3,2.0,True,44,5,high
10000,432,11.0,1698881,724.0,2,0.0,True,45,5,high
10000,433,11.0,1700631,720.2000007629395,5,2.0,True,46,5,high
10000,434,11.0,1702247,594.6000003814697,3,1.0,False,47,5,high
10000,435,11.0,1703997,714.8999996185303,1,2.0,False,48,5,high
10000,436,11.0,1705881,855.2999992370605,5,0.0,False,49,5,high
10000,437,11.0,1707531,627.7999992370605,4,0.0,True,50,5,high
10000,438,11.0,1709081,529.0999984741211,4,0.0,True,51,5,high
10000,439,11.0,1710781,666.2999992370605,2,0.0,True,52,5,high
10000,440,11.0,1712481,673.1000003814697,5,2.0,True,53,5,high
10000,441,11.0,1714064,552.6000003814697,1,1.0,True,54,5,high
10000,442,11.0,1716015,914.9000015258788,3,1.0,False,55,5,high
10000,443,11.0,1717881,837.8999996185303,1,1.0,True,56,5,high
10000,444,11.0,1719364,457.6000003814697,2,0.0,True,57,5,high
10000,445,11.0,1721064,664.6000003814697,5,2.0,True,58,5,high
10000,446,11.0,1722847,755.7999992370605,4,0.0,True,59,5,high
10000,447,11.0,1724459,579.8999996185303,4,0.0,False,60,5,high
10000,448,11.0,1726382,898.7999992370605,2,0.0,True,61,5,high
10000,449,11.0,1728297,894.0,3,1.0,False,62,5,high
10000,450,11.0,1730298,969.3999996185304,3,2.0,True,63,5,high
10000,451,11.0,1732315,981.2999992370604,5,2.0,True,64,5,high
10000,452,11.0,1734198,855.5,1,1.0,True,65,5,high
10000,453,11.0,1736127,905.8000011444092,5,1.0,False,66,5,high
10000,454,11.0,1737848,715.2999992370605,1,1.0,True,67,5,high
10000,455,11.0,1739682,808.2000007629395,3,2.0,True,68,5,high
10000,456,11.0,1741398,699.7000007629395,4,0.0,False,69,5,high
10000,457,11.0,1743730,1305.6999988555908,2,2.0,False,70,5,high
10000,458,11.0,1745681,916.2000007629396,3,2.0,True,71,5,high
10000,459,11.0,1747481,780.8999996185303,4,0.0,False,72,5,high
10000,460,11.0,1749448,951.7999992370604,5,1.0,False,73,5,high
10000,461,11.0,1751465,987.7999992370604,2,0.0,True,74,5,high
10000,462,11.0,1753382,886.5,1,1.0,True,75,5,high
10000,463,12.0,1769132,666.0,1,0.0,True,1,3,low
10000,464,12.0,1770781,625.5,2,2.0,True,2,3,low
10000,465,12.0,1772465,655.8000011444092,3,1.0,False,3,3,low
10000,466,12.0,1774249,752.1999988555908,1,0.0,True,4,3,low
10000,467,12.0,1775746,475.70000076293945,3,0.0,False,5,3,low
10000,468,12.0,1777721,968.9000015258788,2,2.0,True,6,3,low
10000,469,12.0,1779415,686.8999996185303,2,2.0,True,7,3,low
10000,470,12.0,1781117,669.6000003814697,1,0.0,True,8,3,low
10000,471,12.0,1782548,411.5,3,2.0,True,9,3,low
10000,472,12.0,1784225,657.3999996185303,1,0.0,True,10,3,low
10000,473,12.0,1785915,655.6000003814697,1,0.0,True,11,3,low
10000,474,12.0,1787265,327.5,2,2.0,True,12,3,low
10000,475,12.0,1788793,483.5999984741211,2,2.0,True,13,3,low
10000,476,12.0,1790482,665.7999992370605,3,2.0,True,14,3,low
10000,477,12.0,1792066,560.0,3,2.0,True,15,3,low
10000,478,12.0,1793564,466.1000003814697,1,0.0,True,16,3,low
10000,479,12.0,1794982,404.5,3,2.0,True,17,3,low
10000,480,12.0,1796315,308.20000076293945,2,2.0,True,18,3,low
10000,481,12.0,1797599,260.79999923706055,1,0.0,True,19,3,low
10000,482,12.0,1798849,228.3000011444092,3,2.0,True,20,3,low
10000,483,12.0,1799915,29.899999618530277,2,2.0,True,21,3,low
10000,484,12.0,1801182,238.0999984741211,3,0.0,False,22,3,low
10000,485,12.0,1802766,553.3000011444092,1,0.0,True,23,3,low
10000,486,12.0,1804248,449.6999988555908,2,2.0,True,24,3,low
10000,487,12.0,1805916,636.7999992370605,1,0.0,True,25,3,low
10000,488,12.0,1807514,577.0,3,2.0,True,26,3,low
10000,489,12.0,1809149,602.1999988555908,2,2.0,True,27,3,low
10000,490,12.0,1810549,364.5,2,0.0,False,28,3,low
10000,491,12.0,1812099,525.7000007629395,1,0.0,True,29,3,low
10000,492,12.0,1813931,814.5,3,2.0,True,30,3,low
10000,493,12.0,1815348,399.0,3,2.0,True,31,3,low
10000,494,12.0,1816799,433.5999984741211,1,0.0,True,32,3,low
10000,495,12.0,1818249,432.5,2,2.0,True,33,3,low
10000,496,12.0,1819933,664.3000011444092,1,0.0,True,34,3,low
10000,497,12.0,1821464,502.79999923706055,2,2.0,True,35,3,low
10000,498,12.0,1822949,478.79999923706055,3,2.0,True,36,3,low
10000,499,12.0,1824515,536.6000003814697,3,2.0,True,37,3,low
10000,500,12.0,1826049,509.20000076293945,2,2.0,True,38,3,low
10000,501,12.0,1827516,443.0,1,0.0,True,39,3,low
10000,502,12.0,1829033,485.5999984741211,1,0.0,True,40,3,low
10000,503,12.0,1830588,524.6999988555908,3,2.0,True,41,3,low
10000,504,12.0,1832432,822.6999988555908,2,2.0,True,42,3,low
10000,505,12.0,1833900,440.20000076293945,3,0.0,False,43,3,low
10000,506,12.0,1835749,828.1000003814697,2,2.0,True,44,3,low
10000,507,12.0,1837227,436.29999923706055,1,2.0,False,45,3,low
10000,508,13.0,1850366,540.3000011444092,1,0.0,False,1,6,high
10000,509,13.0,1851915,517.6999988555908,2,0.0,True,2,6,high
10000,510,13.0,1853547,621.1999988555908,3,1.0,True,3,6,high
10000,511,13.0,1855299,736.0999984741211,4,2.0,False,4,6,high
10000,512,13.0,1857098,777.2999992370605,5,0.0,False,5,6,high
10000,513,13.0,1859647,1521.7000007629397,6,0.0,False,6,6,high
10000,514,13.0,1861632,968.7999992370604,5,0.0,False,7,6,high
10000,515,13.0,1863583,916.5999984741212,3,1.0,True,8,6,high
10000,516,13.0,1865744,1140.7999992370603,6,1.0,False,9,6,high
10000,517,13.0,1867600,842.0999984741211,4,0.0,False,10,6,high
10000,518,13.0,1869583,954.4000015258788,1,0.0,False,11,6,high
10000,519,13.0,1871315,711.3999996185303,1,1.0,False,12,6,high
10000,520,13.0,1873099,776.2000007629395,2,0.0,True,13,6,high
10000,521,13.0,1874906,785.3999996185303,4,1.0,True,14,6,high
10000,522,13.0,1876467,536.0,3,1.0,True,15,6,high
10000,523,13.0,1878233,747.8000011444092,5,2.0,False,16,6,high
10000,524,13.0,1880216,956.3999996185304,6,1.0,False,17,6,high
10000,525,13.0,1882008,772.3999996185303,2,0.0,True,18,6,high
10000,526,13.0,1883664,631.3000011444092,2,0.0,True,19,6,high
10000,527,13.0,1885550,872.1000003814697,6,1.0,False,20,6,high
10000,528,13.0,1887265,692.1999988555908,3,1.0,True,21,6,high
10000,529,13.0,1889048,756.5,1,1.0,False,22,6,high
10000,530,13.0,1891333,1267.6000003814695,4,1.0,True,23,6,high
10000,531,13.0,1893315,960.1000003814696,5,2.0,False,24,6,high
10000,532,13.0,1895500,1173.7999992370603,4,1.0,True,25,6,high
10000,533,13.0,1897217,698.6999988555908,3,1.0,True,26,6,high
10000,534,13.0,1899034,791.8999996185303,6,2.0,True,27,6,high
10000,535,13.0,1900766,712.2999992370605,2,0.0,True,28,6,high
10000,536,13.0,1902550,747.0,4,1.0,True,29,6,high
10000,537,13.0,1904599,1030.1999988555908,1,1.0,False,30,6,high
10000,538,13.0,1906344,738.2000007629395,5,2.0,False,31,6,high
10000,539,13.0,1908338,969.6999988555908,3,0.0,False,32,6,high
10000,540,13.0,1910280,920.8999996185304,5,1.0,True,33,6,high
10000,541,13.0,1912161,856.2999992370605,1,1.0,False,34,6,high
10000,542,13.0,1913900,727.4000015258789,6,1.0,False,35,6,high
10000,543,13.0,1915700,773.2000007629395,6,2.0,True,36,6,high
10000,544,13.0,1917385,663.2999992370605,2,0.0,True,37,6,high
10000,545,13.0,1919132,727.7000007629395,3,1.0,True,38,6,high
10000,546,13.0,1920931,771.1000003814697,4,2.0,False,39,6,high
10000,547,13.0,1922480,540.2999992370605,2,0.0,True,40,6,high
10000,548,13.0,1924467,971.8999996185304,1,2.0,True,41,6,high
10000,549,13.0,1926234,733.7000007629395,5,1.0,True,42,6,high
10000,550,13.0,1928151,894.1000003814697,1,1.0,False,43,6,high
10000,551,13.0,1929917,747.5999984741211,4,1.0,True,44,6,high
10000,552,13.0,1931600,645.3000011444092,5,2.0,False,45,6,high
10000,553,13.0,1933300,669.9000015258789,3,1.0,True,46,6,high
10000,554,13.0,1935128,798.3999996185303,6,2.0,True,47,6,high
10000,555,13.0,1937034,884.2999992370605,4,2.0,False,48,6,high
10000,556,13.0,1938915,850.9000015258789,6,1.0,False,49,6,high
10000,557,13.0,1940701,778.3999996185303,2,0.0,True,50,6,high
10000,558,13.0,1942387,663.7999992370605,2,0.0,True,51,6,high
10000,559,13.0,1944084,669.2999992370605,3,1.0,True,52,6,high
10000,560,13.0,1945867,764.5,5,2.0,False,53,6,high
10000,561,13.0,1947667,773.8999996185303,1,1.0,False,54,6,high
10000,562,13.0,1949365,672.0,2,0.0,True,55,6,high
10000,563,13.0,1951209,814.5,6,1.0,False,56,6,high
10000,564,13.0,1953067,843.0,1,1.0,False,57,6,high
10000,565,13.0,1954901,801.5,4,2.0,False,58,6,high
10000,566,13.0,1956568,660.2000007629395,3,1.0,True,59,6,high
10000,567,13.0,1958201,605.9000015258789,3,1.0,True,60,6,high
10000,568,13.0,1960051,817.2000007629395,6,0.0,False,61,6,high
10000,569,13.0,1961935,863.7999992370605,5,2.0,False,62,6,high
10000,570,13.0,1963683,719.3000011444092,5,1.0,True,63,6,high
10000,571,13.0,1965601,902.7000007629396,4,1.0,True,64,6,high
10000,572,13.0,1967267,632.0,2,0.0,True,65,6,high
10000,573,13.0,1968944,654.2000007629395,1,1.0,False,66,6,high
10000,574,13.0,1970610,655.7999992370605,2,0.0,True,67,6,high
10000,575,13.0,1972435,811.5,5,1.0,True,68,6,high
10000,576,13.0,1974277,823.8999996185303,1,2.0,True,69,6,high
10000,577,13.0,1976232,931.0,4,1.0,True,70,6,high
10000,578,13.0,1977917,670.1000003814697,3,1.0,True,71,6,high
10000,579,13.0,1979401,476.29999923706055,6,2.0,True,72,6,high
10000,580,13.0,1981082,651.3000011444092,1,1.0,False,73,6,high
10000,581,13.0,1982818,710.0,3,1.0,True,74,6,high
10000,582,13.0,1984638,798.8999996185303,4,1.0,True,75,6,high
10000,583,13.0,1986368,716.1000003814697,5,2.0,False,76,6,high
10000,584,13.0,1988017,624.3000011444092,2,0.0,True,77,6,high
10000,585,13.0,1989718,667.0,3,1.0,True,78,6,high
10000,586,13.0,1991785,1040.3999996185305,6,1.0,False,79,6,high
10000,587,13.0,1993946,1129.900001525879,4,1.0,True,80,6,high
10000,588,13.0,1995484,517.3999996185303,6,2.0,True,81,6,high
10000,589,13.0,1997549,1043.2999992370603,5,2.0,False,82,6,high
10000,590,13.0,1999152,586.3000011444092,5,0.0,False,83,6,high
10000,591,13.0,2001385,1213.2999992370603,1,2.0,True,84,6,high
10000,592,13.0,2003042,633.9000015258789,2,0.0,True,85,6,high
10000,593,13.0,2004884,817.8999996185303,1,2.0,True,86,6,high
10000,594,13.0,2006668,751.6000003814697,4,1.0,True,87,6,high
10000,595,13.0,2008467,768.3999996185303,2,0.0,True,88,6,high
10000,596,13.0,2010068,579.3000011444092,3,1.0,True,89,6,high
10000,597,13.0,2011852,751.3000011444092,6,2.0,True,90,6,high
10000,598,15.0,2026435,336.6000003814697,1,0.0,False,1,3,low
10000,599,15.0,2028018,555.0,2,1.0,False,2,3,low
10000,600,15.0,2029817,780.2999992370605,3,1.0,True,3,3,low
10000,601,15.0,2031602,755.3999996185303,1,2.0,True,4,3,low
10000,602,15.0,2033352,726.0,3,1.0,True,5,3,low
10000,603,15.0,2035185,802.8999996185303,2,2.0,True,6,3,low
10000,604,15.0,2036968,756.7999992370605,2,2.0,True,7,3,low
10000,605,15.0,2038518,525.5,3,1.0,True,8,3,low
10000,606,15.0,2040217,673.6000003814697,1,2.0,True,9,3,low
10000,607,15.0,2041934,698.8999996185303,1,2.0,True,10,3,low
10000,608,15.0,2043613,657.7999992370605,2,2.0,True,11,3,low
10000,609,15.0,2045302,670.6999988555908,1,2.0,True,12,3,low
10000,610,15.0,2046836,507.9000015258789,3,1.0,True,13,3,low
10000,611,15.0,2048478,612.1999988555908,2,2.0,True,14,3,low
10000,612,15.0,2050335,835.3999996185303,3,1.0,True,15,3,low
10000,613,15.0,2051789,436.0999984741211,1,2.0,True,16,3,low
10000,614,15.0,2053469,647.0,2,2.0,True,17,3,low
10000,615,15.0,2055100,610.6000003814697,2,2.0,True,18,3,low
10000,616,15.0,2056540,425.70000076293945,3,1.0,True,19,3,low
10000,617,15.0,2058118,561.8999996185303,3,1.0,True,20,3,low
10000,618,15.0,2059734,583.2999992370605,1,2.0,True,21,3,low
10000,619,15.0,2061401,637.2999992370605,3,1.0,True,22,3,low
10000,620,15.0,2063019,582.4000015258789,2,2.0,True,23,3,low
10000,621,15.0,2064586,539.0,1,2.0,True,24,3,low
10000,622,15.0,2066208,575.5,1,2.0,True,25,3,low
10000,623,15.0,2067669,446.1999988555908,3,1.0,True,26,3,low
10000,624,15.0,2069168,478.3999996185303,2,2.0,True,27,3,low
10000,625,15.0,2070583,398.6000003814697,3,2.0,False,28,3,low
10000,626,15.0,2072219,618.2999992370605,2,1.0,False,29,3,low
10000,627,15.0,2074019,763.5,1,2.0,True,30,3,low
10000,628,15.0,2075536,495.8999996185303,3,1.0,True,31,3,low
10000,629,15.0,2077219,660.6000003814697,3,1.0,True,32,3,low
10000,630,15.0,2078736,481.8999996185303,2,2.0,True,33,3,low
10000,631,15.0,2080452,691.2000007629395,1,2.0,True,34,3,low
10000,632,15.0,2082000,524.7000007629395,1,2.0,True,35,3,low
10000,633,15.0,2083468,460.3999996185303,2,1.0,False,36,3,low
10000,634,15.0,2085267,776.7999992370605,3,1.0,True,37,3,low
10000,635,15.0,2086719,443.1000003814697,2,2.0,True,38,3,low
10000,636,15.0,2088452,701.1000003814697,3,1.0,True,39,3,low
10000,637,15.0,2089969,498.6000003814697,1,2.0,True,40,3,low
10000,638,15.0,2091803,812.3999996185303,2,2.0,True,41,3,low
10000,639,15.0,2093319,498.6000003814697,1,2.0,True,42,3,low
10000,640,15.0,2094920,580.9000015258789,1,2.0,True,43,3,low
10000,641,15.0,2096486,538.4000015258789,3,1.0,True,44,3,low
10000,642,15.0,2098153,653.3000011444092,2,1.0,False,45,3,low
10000,643,16.0,2112063,506.5,1,1.0,True,1,6,high
10000,644,16.0,2113837,761.8000011444092,2,0.0,False,2,6,high
10000,645,16.0,2115570,706.8999996185303,3,2.0,False,3,6,high
10000,646,16.0,2117737,1134.0,4,2.0,False,4,6,high
10000,647,16.0,2119953,1188.0,5,0.0,False,5,6,high
10000,648,16.0,2121687,714.8999996185303,6,2.0,False,6,6,high
10000,649,16.0,2123536,819.8000011444092,5,1.0,False,7,6,high
10000,650,16.0,2125370,808.7000007629395,2,2.0,True,8,6,high
10000,651,16.0,2127253,849.5,6,2.0,False,9,6,high
10000,652,16.0,2129353,1072.2000007629397,3,2.0,False,10,6,high
10000,653,16.0,2130953,581.5,1,1.0,True,11,6,high
10000,654,16.0,2132756,775.5999984741211,4,0.0,True,12,6,high
10000,655,16.0,2134635,852.0,6,2.0,False,13,6,high
10000,656,16.0,2136570,913.7999992370604,2,1.0,False,14,6,high
10000,657,16.0,2138520,928.0999984741212,3,0.0,True,15,6,high
10000,658,16.0,2140438,893.1000003814697,5,0.0,False,16,6,high
10000,659,16.0,2142220,748.2000007629395,4,1.0,False,17,6,high
10000,660,16.0,2143902,657.7999992370605,1,1.0,True,18,6,high
10000,661,16.0,2145687,779.4000015258789,1,0.0,False,19,6,high
10000,662,16.0,2147501,784.6000003814697,4,1.0,False,20,6,high
10000,663,16.0,2149187,672.7000007629395,6,0.0,True,21,6,high
10000,664,16.0,2151104,883.7000007629395,2,2.0,True,22,6,high
10000,665,16.0,2153141,1013.0,6,0.0,True,23,6,high
10000,666,16.0,2154987,823.5,3,1.0,False,24,6,high
10000,667,16.0,2156903,897.0,5,2.0,True,25,6,high
10000,668,16.0,2158570,634.1000003814697,5,2.0,True,26,6,high
10000,669,16.0,2160320,729.0,4,0.0,True,27,6,high
10000,670,16.0,2161971,618.1999988555908,3,1.0,False,28,6,high
10000,671,16.0,2163989,989.8000011444092,1,0.0,False,29,6,high
10000,672,16.0,2165837,815.6000003814697,2,2.0,True,30,6,high
10000,673,16.0,2167654,787.1000003814697,1,0.0,False,31,6,high
10000,674,16.0,2169358,672.9000015258789,3,1.0,False,32,6,high
10000,675,16.0,2171302,918.3999996185304,4,1.0,False,33,6,high
10000,676,16.0,2173120,799.8999996185303,6,0.0,True,34,6,high
10000,677,16.0,2175037,895.0,3,1.0,False,35,6,high
10000,678,16.0,2176954,890.2000007629395,5,2.0,True,36,6,high
10000,679,16.0,2178670,683.5,5,2.0,True,37,6,high
10000,680,16.0,2180736,1044.2999992370603,4,0.0,True,38,6,high
10000,681,16.0,2182587,835.8000011444092,2,2.0,True,39,6,high
10000,682,16.0,2184371,755.3999996185303,2,2.0,True,40,6,high
10000,683,16.0,2186020,624.1999988555908,6,1.0,False,41,6,high
10000,684,16.0,2187920,871.2000007629395,1,1.0,True,42,6,high
10000,685,16.0,2189754,802.2999992370605,2,2.0,True,43,6,high
10000,686,16.0,2191934,1158.6999988555908,4,2.0,False,44,6,high
10000,687,16.0,2193921,968.6000003814696,6,0.0,True,45,6,high
10000,688,16.0,2195954,1015.8999996185304,3,2.0,False,46,6,high
10000,689,16.0,2198321,1349.099998474121,1,2.0,False,47,6,high
10000,690,16.0,2200270,919.5,5,2.0,True,48,6,high
10000,691,16.0,2201936,644.1000003814697,1,0.0,False,49,6,high
10000,692,16.0,2203957,988.5,6,0.0,True,50,6,high
10000,693,16.0,2205937,965.2000007629396,4,2.0,False,51,6,high
10000,694,16.0,2207654,691.3000011444092,2,2.0,True,52,6,high
10000,695,16.0,2209254,569.6000003814697,2,2.0,True,53,6,high
10000,696,16.0,2211105,820.1000003814697,3,1.0,False,54,6,high
10000,697,16.0,2212921,803.0,5,2.0,True,55,6,high
10000,698,16.0,2214937,996.1999988555908,6,1.0,False,56,6,high
10000,699,16.0,2216738,768.8999996185303,5,2.0,True,57,6,high
10000,700,16.0,2218738,986.0,3,0.0,True,58,6,high
10000,701,16.0,2220621,863.7000007629395,1,1.0,True,59,6,high
10000,702,16.0,2222321,676.9000015258789,5,2.0,True,60,6,high
10000,703,16.0,2224155,799.6000003814697,4,2.0,False,61,6,high
10000,704,16.0,2226021,843.6000003814697,3,0.0,True,62,6,high
10000,705,16.0,2227820,788.7000007629395,4,2.0,False,63,6,high
10000,706,16.0,2229521,683.7000007629395,2,2.0,True,64,6,high
10000,707,16.0,2231221,666.8999996185303,6,0.0,True,65,6,high
10000,708,16.0,2232888,639.6000003814697,5,2.0,True,66,6,high
10000,709,16.0,2234671,757.6000003814697,1,1.0,True,67,6,high
10000,710,16.0,2236347,635.1000003814697,1,1.0,True,68,6,high
10000,711,16.0,2237999,631.1999988555908,2,2.0,True,69,6,high
10000,712,16.0,2239769,750.2000007629395,4,2.0,False,70,6,high
10000,713,16.0,2241572,778.7999992370605,1,1.0,True,71,6,high
10000,714,16.0,2243301,701.0,3,0.0,True,72,6,high
10000,715,16.0,2244973,660.8000011444092,6,0.0,True,73,6,high
10000,716,16.0,2246889,891.8000011444092,3,1.0,False,74,6,high
10000,717,16.0,2248548,633.8000011444092,2,2.0,True,75,6,high
10000,718,16.0,2250172,606.8999996185303,6,0.0,True,76,6,high
10000,719,16.0,2251805,602.0,5,2.0,True,77,6,high
10000,720,16.0,2253439,616.7999992370605,3,1.0,False,78,6,high
10000,721,16.0,2255171,685.8000011444092,4,2.0,False,79,6,high
10000,722,16.0,2256808,624.8000011444092,4,0.0,True,80,6,high
10000,723,16.0,2258488,661.8999996185303,1,1.0,True,81,6,high
10000,724,16.0,2260124,602.8000011444092,5,2.0,True,82,6,high
10000,725,16.0,2261688,538.6000003814697,2,2.0,True,83,6,high
10000,726,16.0,2263358,663.7000007629395,4,2.0,False,84,6,high
10000,727,16.0,2265039,655.5,6,0.0,True,85,6,high
10000,728,16.0,2266639,578.2000007629395,1,1.0,True,86,6,high
10000,729,16.0,2268266,597.7999992370605,6,0.0,True,87,6,high
10000,730,16.0,2269789,504.20000076293945,5,2.0,True,88,6,high
10000,731,16.0,2271305,484.0,3,1.0,False,89,6,high
10000,732,16.0,2273071,739.4000015258789,2,2.0,True,90,6,high
10000,733,17.0,2288143,333.5,1,0.0,True,1,5,high
10000,734,17.0,2289672,507.6000003814697,2,1.0,True,2,5,high
10000,735,17.0,2291289,605.2999992370605,3,2.0,False,3,5,high
10000,736,17.0,2293002,680.3000011444092,4,1.0,False,4,5,high
10000,737,17.0,2294713,699.8999996185303,5,0.0,False,5,5,high
10000,738,17.0,2296506,763.0,2,1.0,True,6,5,high
10000,739,17.0,2298305,774.8000011444092,5,1.0,False,7,5,high
10000,740,17.0,2300184,852.4000015258789,1,0.0,True,8,5,high
10000,741,17.0,2301972,767.8999996185303,4,2.0,True,9,5,high
10000,742,17.0,2303639,655.1000003814697,4,2.0,True,10,5,high
10000,743,17.0,2305472,816.8000011444092,3,1.0,True,11,5,high
10000,744,17.0,2307089,591.2000007629395,2,1.0,True,12,5,high
10000,745,17.0,2308798,689.6000003814697,3,1.0,True,13,5,high
10000,746,17.0,2310639,819.8000011444092,1,0.0,True,14,5,high
10000,747,17.0,2312570,905.0,2,1.0,True,15,5,high
10000,748,17.0,2314406,826.1000003814697,5,2.0,True,16,5,high
10000,749,17.0,2316022,595.2999992370605,5,2.0,True,17,5,high
10000,750,17.0,2317755,709.1999988555908,4,0.0,False,18,5,high
10000,751,17.0,2319389,615.8999996185303,1,1.0,False,19,5,high
10000,752,17.0,2321183,771.5,3,0.0,False,20,5,high
10000,753,17.0,2322962,754.2000007629395,5,2.0,True,21,5,high
10000,754,17.0,2324772,794.7999992370605,1,1.0,False,22,5,high
10000,755,17.0,2326590,778.3999996185303,4,1.0,False,23,5,high
10000,756,17.0,2328272,660.3999996185303,2,1.0,True,24,5,high
10000,757,17.0,2330089,795.8000011444092,1,0.0,True,25,5,high
10000,758,17.0,2331771,662.3999996185303,3,0.0,False,26,5,high
10000,759,17.0,2333410,623.1000003814697,4,2.0,True,27,5,high
10000,760,17.0,2335056,631.3999996185303,3,2.0,False,28,5,high
10000,761,17.0,2336873,792.0,5,1.0,False,29,5,high
10000,762,17.0,2338556,649.2000007629395,5,2.0,True,30,5,high
10000,763,17.0,2340356,785.1000003814697,2,1.0,True,31,5,high
10000,764,17.0,2342087,710.6000003814697,3,2.0,False,32,5,high
10000,765,17.0,2344023,919.2999992370604,2,1.0,True,33,5,high
10000,766,17.0,2345656,613.9000015258789,1,0.0,True,34,5,high
10000,767,17.0,2347472,789.1999988555908,4,2.0,True,35,5,high
10000,768,17.0,2349073,586.8000011444092,4,2.0,True,36,5,high
10000,769,17.0,2350756,655.6000003814697,3,1.0,True,37,5,high
10000,770,17.0,2352573,783.3000011444092,1,0.0,True,38,5,high
10000,771,17.0,2354290,693.8999996185303,5,2.0,True,39,5,high
10000,772,17.0,2355773,455.8000011444092,2,1.0,True,40,5,high
10000,773,17.0,2357440,643.6000003814697,1,2.0,False,41,5,high
10000,774,17.0,2359021,556.8000011444092,4,1.0,False,42,5,high
10000,775,17.0,2360756,705.0,2,1.0,True,43,5,high
10000,776,17.0,2362375,593.7000007629395,5,2.0,True,44,5,high
10000,777,17.0,2363989,593.7999992370605,3,0.0,False,45,5,high
10000,778,17.0,2365656,632.3999996185303,3,1.0,True,46,5,high
10000,779,17.0,2367239,564.8999996185303,1,0.0,True,47,5,high
10000,780,17.0,2368972,698.8999996185303,5,2.0,True,48,5,high
10000,781,17.0,2370456,477.8000011444092,4,1.0,False,49,5,high
10000,782,17.0,2372023,547.7000007629395,5,0.0,False,50,5,high
10000,783,17.0,2373623,581.1000003814697,2,1.0,True,51,5,high
10000,784,17.0,2375273,612.1000003814697,1,2.0,False,52,5,high
10000,785,17.0,2377206,903.8999996185304,2,1.0,True,53,5,high
10000,786,17.0,2378823,590.9000015258789,2,1.0,True,54,5,high
10000,787,17.0,2380456,611.3999996185303,3,0.0,False,55,5,high
10000,788,17.0,2382123,639.3999996185303,4,1.0,False,56,5,high
10000,789,17.0,2384077,923.0,1,0.0,True,57,5,high
10000,790,17.0,2385940,828.0,3,1.0,True,58,5,high
10000,791,17.0,2387840,872.1000003814697,5,1.0,False,59,5,high
10000,792,17.0,2389590,729.0999984741211,2,0.0,False,60,5,high
10000,793,17.0,2391690,1065.599998474121,1,1.0,False,61,5,high
10000,794,17.0,2393657,942.3000011444092,4,2.0,True,62,5,high
10000,795,17.0,2395393,707.2000007629395,4,2.0,True,63,5,high
10000,796,17.0,2397107,685.6999988555908,3,1.0,True,64,5,high
10000,797,17.0,2398973,851.6999988555908,4,2.0,True,65,5,high
10000,798,17.0,2400721,728.7000007629395,5,0.0,False,66,5,high
10000,799,17.0,2402424,688.6999988555908,3,1.0,True,67,5,high
10000,800,17.0,2404273,818.6999988555908,2,2.0,False,68,5,high
10000,801,17.0,2405906,605.5,5,2.0,True,69,5,high
10000,802,17.0,2407657,744.1000003814697,1,1.0,False,70,5,high
10000,803,17.0,2409657,964.6000003814696,5,2.0,True,71,5,high
10000,804,17.0,2411439,761.3000011444092,2,1.0,True,72,5,high
10000,805,17.0,2413354,892.4000015258789,4,2.0,True,73,5,high
10000,806,17.0,2415074,712.7000007629395,3,1.0,True,74,5,high
10000,807,17.0,2416672,581.4000015258789,1,0.0,True,75,5,high
10000,808,18.0,2435739,326.4000015258789,1,1.0,True,1,2,low
10000,809,18.0,2437287,519.2000007629395,2,2.0,False,2,2,low
10000,810,18.0,2439040,736.7999992370605,2,0.0,True,3,2,low
10000,811,18.0,2440442,376.0,1,1.0,True,4,2,low
10000,812,18.0,2442007,547.6000003814697,2,0.0,True,5,2,low
10000,813,18.0,2443541,501.8999996185303,1,1.0,True,6,2,low
10000,814,18.0,2445088,522.5,1,1.0,True,7,2,low
10000,815,18.0,2446544,439.20000076293945,2,0.0,True,8,2,low
10000,816,18.0,2448257,694.3000011444092,2,0.0,True,9,2,low
10000,817,18.0,2449724,453.1999988555908,1,1.0,True,10,2,low
10000,818,18.0,2451424,676.2999992370605,2,0.0,True,11,2,low
10000,819,18.0,2453258,811.3999996185303,2,0.0,True,12,2,low
10000,820,18.0,2454674,399.5,1,1.0,True,13,2,low
10000,821,18.0,2456372,674.3000011444092,1,1.0,True,14,2,low
10000,822,18.0,2457974,585.0,2,0.0,True,15,2,low
10000,823,18.0,2459608,601.7000007629395,1,1.0,True,16,2,low
10000,824,18.0,2461224,595.0,2,0.0,True,17,2,low
10000,825,18.0,2462789,539.3999996185303,1,1.0,True,18,2,low
10000,826,18.0,2464508,714.4000015258789,1,1.0,True,19,2,low
10000,827,18.0,2466256,731.5,2,0.0,True,20,2,low
10000,828,18.0,2467874,592.3000011444092,1,1.0,True,21,2,low
10000,829,18.0,2469541,638.1999988555908,1,1.0,True,22,2,low
10000,830,18.0,2471208,645.5,2,0.0,True,23,2,low
10000,831,18.0,2472841,603.1999988555908,2,0.0,True,24,2,low
10000,832,18.0,2474341,471.6000003814697,1,1.0,True,25,2,low
10000,833,18.0,2475901,540.8999996185303,2,0.0,True,26,2,low
10000,834,18.0,2477290,376.79999923706055,1,1.0,False,27,2,low
10000,835,18.0,2479404,1110.3999996185305,1,2.0,True,28,2,low
10000,836,18.0,2481107,685.5,2,0.0,True,29,2,low
10000,837,18.0,2482858,719.2999992370605,2,0.0,True,30,2,low
10000,838,19.0,2493625,600.0,1,2.0,True,1,3,low
10000,839,19.0,2495007,355.70000076293945,2,1.0,False,2,3,low
10000,840,19.0,2496775,760.1999988555908,3,2.0,True,3,3,low
10000,841,19.0,2498304,501.1000003814697,1,2.0,True,4,3,low
10000,842,19.0,2499974,650.6000003814697,3,2.0,True,5,3,low
10000,843,19.0,2501536,534.2999992370605,2,0.0,False,6,3,low
10000,844,19.0,2503258,699.7999992370605,2,1.0,False,7,3,low
10000,845,19.0,2504808,530.0,3,2.0,True,8,3,low
10000,846,19.0,2506242,416.6000003814697,1,2.0,True,9,3,low
10000,847,19.0,2507575,311.1000003814697,3,2.0,True,10,3,low
10000,848,19.0,2508975,376.0,2,2.0,True,11,3,low
10000,849,19.0,2510259,256.0999984741211,2,2.0,True,12,3,low
10000,850,19.0,2511689,409.1999988555908,1,2.0,True,13,3,low
10000,851,19.0,2513040,342.6999988555908,1,2.0,True,14,3,low
10000,852,19.0,2514357,301.3999996185303,3,2.0,True,15,3,low
10000,853,19.0,2515703,342.6000003814697,1,2.0,True,16,3,low
10000,854,19.0,2517179,454.5,2,2.0,True,17,3,low
10000,855,19.0,2518475,271.6000003814697,3,2.0,True,18,3,low
10000,856,19.0,2519792,288.0,3,2.0,True,19,3,low
10000,857,19.0,2521175,358.8999996185303,1,2.0,True,20,3,low
10000,858,19.0,2522491,283.20000076293945,2,2.0,True,21,3,low
10000,859,19.0,2523724,225.10000038146973,3,2.0,True,22,3,low
10000,860,19.0,2525107,363.1000003814697,2,2.0,True,23,3,low
10000,861,19.0,2526175,40.20000076293945,2,2.0,True,24,3,low
10000,862,19.0,2527274,81.79999923706055,1,2.0,True,25,3,low
10000,863,19.0,2528442,158.0999984741211,3,2.0,True,26,3,low
10000,864,19.0,2529657,195.39999961853027,1,2.0,True,27,3,low
10000,865,19.0,2530842,156.39999961853027,1,2.0,True,28,3,low
10000,866,19.0,2532092,226.0,2,2.0,True,29,3,low
10000,867,19.0,2533392,268.1000003814697,3,2.0,True,30,3,low
10000,868,19.0,2534709,293.0,1,2.0,True,31,3,low
10000,869,19.0,2536025,279.5,2,2.0,True,32,3,low
10000,870,19.0,2537276,219.29999923706052,3,2.0,True,33,3,low
10000,871,19.0,2538509,204.6999988555908,2,2.0,True,34,3,low
10000,872,19.0,2539644,102.20000076293944,3,2.0,True,35,3,low
10000,873,19.0,2540759,84.10000038146973,1,2.0,True,36,3,low
10000,874,19.0,2541876,104.5,1,2.0,False,37,3,low
10000,875,19.0,2543175,276.8000011444092,3,1.0,False,38,3,low
10000,876,19.0,2544409,204.5,2,0.0,False,39,3,low
10000,877,19.0,2545959,527.8000011444092,3,2.0,True,40,3,low
10000,878,19.0,2547442,464.1999988555908,1,1.0,False,41,3,low
10000,879,19.0,2548857,396.79999923706055,1,2.0,False,42,3,low
10000,880,19.0,2550576,711.1000003814697,2,1.0,False,43,3,low
10000,881,19.0,2552293,698.3000011444092,2,0.0,False,44,3,low
10000,882,19.0,2554159,840.3999996185303,3,0.0,False,45,3,low
10000,883,21.0,2568309,331.6000003814697,1,0.0,True,1,5,high
10000,884,21.0,2569866,522.8999996185303,2,2.0,True,2,5,high
10000,885,21.0,2571376,496.70000076293945,3,1.0,False,3,5,high
10000,886,21.0,2573192,797.3999996185303,4,2.0,False,4,5,high
10000,887,21.0,2574926,709.8000011444092,5,0.0,False,5,5,high
10000,888,21.0,2576742,788.5999984741211,2,2.0,True,6,5,high
10000,889,21.0,2578472,711.2000007629395,4,1.0,False,7,5,high
10000,890,21.0,2580158,647.7999992370605,3,1.0,False,8,5,high
10000,891,21.0,2582176,995.6999988555908,1,0.0,True,9,5,high
10000,892,21.0,2583922,723.8000011444092,1,0.0,True,10,5,high
10000,893,21.0,2585676,747.6999988555908,5,2.0,False,11,5,high
10000,894,21.0,2587681,973.3000011444092,3,2.0,False,12,5,high
10000,895,21.0,2589592,892.9000015258789,5,2.0,False,13,5,high
10000,896,21.0,2591376,751.6000003814697,4,1.0,False,14,5,high
10000,897,21.0,2593546,1139.8999996185305,2,0.0,False,15,5,high
10000,898,21.0,2595626,1066.0,1,0.0,True,16,5,high
10000,899,21.0,2597526,879.5999984741211,4,2.0,False,17,5,high
10000,900,21.0,2599745,1199.0,5,0.0,False,18,5,high
10000,901,21.0,2601943,1171.3000011444092,3,0.0,True,19,5,high
10000,902,21.0,2603843,873.5,5,1.0,True,20,5,high
10000,903,21.0,2605727,854.6000003814697,2,2.0,True,21,5,high
10000,904,21.0,2607493,735.8999996185303,2,2.0,True,22,5,high
10000,905,21.0,2609426,901.0,3,0.0,True,23,5,high
10000,906,21.0,2611161,703.7999992370605,1,0.0,True,24,5,high
10000,907,21.0,2612959,778.7999992370605,4,0.0,True,25,5,high
10000,908,21.0,2615058,1074.0,3,1.0,False,26,5,high
10000,909,21.0,2617193,1120.5,2,1.0,False,27,5,high
10000,910,21.0,2619260,1048.2000007629397,2,2.0,True,28,5,high
10000,911,21.0,2621360,1071.2999992370603,5,0.0,False,29,5,high
10000,912,21.0,2622943,562.3000011444092,1,0.0,True,30,5,high
10000,913,21.0,2625248,1283.8999996185305,5,1.0,True,31,5,high
10000,914,21.0,2627227,949.0,4,1.0,False,32,5,high
10000,915,21.0,2628909,654.3000011444092,4,0.0,True,33,5,high
10000,916,21.0,2630576,632.7999992370605,1,0.0,True,34,5,high
10000,917,21.0,2632601,998.8000011444092,3,0.0,True,35,5,high
10000,918,21.0,2634491,851.2999992370605,2,2.0,True,36,5,high
10000,919,21.0,2636327,808.2999992370605,3,0.0,True,37,5,high
10000,920,21.0,2637859,512.5,5,0.0,False,38,5,high
10000,921,21.0,2639494,594.6999988555908,1,0.0,True,39,5,high
10000,922,21.0,2641341,818.6999988555908,4,0.0,True,40,5,high
10000,923,21.0,2643077,715.6000003814697,5,1.0,True,41,5,high
10000,924,21.0,2644709,619.6000003814697,1,0.0,True,42,5,high
10000,925,21.0,2646594,849.4000015258789,3,0.0,True,43,5,high
10000,926,21.0,2648560,937.2999992370604,2,2.0,True,44,5,high
10000,927,21.0,2650760,1175.900001525879,4,0.0,True,45,5,high
10000,928,21.0,2652392,607.2999992370605,4,0.0,True,46,5,high
10000,929,21.0,2654275,874.5,3,0.0,True,47,5,high
10000,930,21.0,2656294,991.8999996185304,5,1.0,True,48,5,high
10000,931,21.0,2658227,918.3999996185304,3,0.0,True,49,5,high
10000,932,21.0,2659944,686.1999988555908,2,2.0,True,50,5,high
10000,933,21.0,2661594,629.7999992370605,1,0.0,True,51,5,high
10000,934,21.0,2663712,1099.0,2,0.0,False,52,5,high
10000,935,21.0,2665650,919.6000003814696,5,1.0,True,53,5,high
10000,936,21.0,2667444,771.9000015258789,4,0.0,True,54,5,high
10000,937,21.0,2669090,610.6000003814697,1,0.0,True,55,5,high
10000,938,21.0,2671023,919.5,5,2.0,False,56,5,high
10000,939,21.0,2672661,614.3000011444092,1,0.0,True,57,5,high
10000,940,21.0,2674144,461.5,3,0.0,True,58,5,high
10000,941,21.0,2676109,938.8000011444092,2,0.0,False,59,5,high
10000,942,21.0,2677809,683.0,2,2.0,True,60,5,high
10000,943,21.0,2679544,722.5,4,0.0,True,61,5,high
10000,944,21.0,2681250,686.5,3,0.0,True,62,5,high
10000,945,21.0,2682947,669.1000003814697,1,0.0,True,63,5,high
10000,946,21.0,2684857,893.7000007629395,5,1.0,True,64,5,high
10000,947,21.0,2686411,527.0,5,1.0,True,65,5,high
10000,948,21.0,2688044,605.2000007629395,4,0.0,True,66,5,high
10000,949,21.0,2689590,525.5,3,0.0,True,67,5,high
10000,950,21.0,2691414,804.5,4,0.0,True,68,5,high
10000,951,21.0,2693393,955.6000003814696,2,2.0,True,69,5,high
10000,952,21.0,2695037,620.5,3,0.0,True,70,5,high
10000,953,21.0,2696692,633.3999996185303,1,0.0,True,71,5,high
10000,954,21.0,2698244,519.7000007629395,1,0.0,True,72,5,high
10000,955,21.0,2700052,790.5999984741211,2,2.0,True,73,5,high
10000,956,21.0,2701826,763.0,5,1.0,True,74,5,high
10000,957,21.0,2703379,539.9000015258789,1,0.0,False,75,5,high
10000,958,22.0,2719110,331.8999996185303,1,0.0,False,1,2,low
10000,959,22.0,2720778,635.3999996185303,2,1.0,False,2,2,low
10000,960,22.0,2722844,1038.5,1,2.0,False,3,2,low
10000,961,22.0,2724595,719.3000011444092,1,1.0,True,4,2,low
10000,962,22.0,2726334,711.1000003814697,2,1.0,False,5,2,low
10000,963,22.0,2728041,693.5,2,2.0,False,6,2,low
10000,964,22.0,2729959,901.8999996185304,1,1.0,True,7,2,low
10000,965,22.0,2731712,745.2999992370605,2,1.0,False,8,2,low
10000,966,22.0,2733597,866.3999996185303,2,0.0,True,9,2,low
10000,967,22.0,2735262,647.0999984741211,1,1.0,True,10,2,low
10000,968,22.0,2736909,603.6999988555908,2,0.0,True,11,2,low
10000,969,22.0,2738462,536.8999996185303,1,1.0,True,12,2,low
10000,970,22.0,2740010,513.7000007629395,1,1.0,True,13,2,low
10000,971,22.0,2741626,588.0,2,0.0,True,14,2,low
10000,972,22.0,2743595,932.4000015258788,2,1.0,False,15,2,low
10000,973,22.0,2745345,731.0,1,1.0,True,16,2,low
10000,974,22.0,2746961,587.8000011444092,2,0.0,True,17,2,low
10000,975,22.0,2748561,579.6999988555908,1,1.0,True,18,2,low
10000,976,22.0,2750245,650.0,1,1.0,True,19,2,low
10000,977,22.0,2751847,572.8000011444092,2,0.0,True,20,2,low
10000,978,22.0,2753511,634.6000003814697,2,0.0,True,21,2,low
10000,979,22.0,2755178,639.1999988555908,1,1.0,True,22,2,low
10000,980,22.0,2756728,503.5,2,0.0,True,23,2,low
10000,981,22.0,2758595,834.9000015258789,1,1.0,True,24,2,low
10000,982,22.0,2760429,798.6999988555908,1,1.0,True,25,2,low
10000,983,22.0,2762243,787.7000007629395,2,0.0,True,26,2,low
10000,984,22.0,2763961,698.7999992370605,1,1.0,True,27,2,low
10000,985,22.0,2765644,650.1000003814697,1,1.0,True,28,2,low
10000,986,22.0,2767162,497.8000011444092,2,0.0,True,29,2,low
10000,987,22.0,2768712,520.6000003814697,2,0.0,True,30,2,low
10000,988,23.0,2785412,759.9000015258789,1,1.0,True,1,6,high
10000,989,23.0,2787278,837.7000007629395,2,2.0,False,2,6,high
10000,990,23.0,2788945,661.1000003814697,3,0.0,True,3,6,high
10000,991,23.0,2790712,748.3999996185303,4,2.0,True,4,6,high
10000,992,23.0,2792629,895.6000003814697,5,0.0,True,5,6,high
10000,993,23.0,2794490,835.5,6,1.0,False,6,6,high
10000,994,23.0,2796351,850.0,5,0.0,True,7,6,high
10000,995,23.0,2798162,789.6000003814697,1,2.0,False,8,6,high
10000,996,23.0,2799929,748.8999996185303,3,1.0,False,9,6,high
10000,997,23.0,2801845,886.5,2,2.0,False,10,6,high
10000,998,23.0,2803779,912.5,6,1.0,False,11,6,high
10000,999,23.0,2805944,1132.7999992370603,3,1.0,False,12,6,high
10000,1000,23.0,2808029,1065.2000007629397,4,1.0,False,13,6,high
10000,1001,23.0,2809946,892.7000007629395,4,2.0,True,14,6,high
10000,1002,23.0,2811746,767.0,6,1.0,False,15,6,high
10000,1003,23.0,2813679,921.7000007629396,2,0.0,True,16,6,high
10000,1004,23.0,2815463,767.5,5,1.0,False,17,6,high
10000,1005,23.0,2817579,1085.1999988555908,1,1.0,True,18,6,high
10000,1006,23.0,2820062,1456.900001525879,3,2.0,False,19,6,high
10000,1007,23.0,2822046,951.6000003814696,5,0.0,True,20,6,high
10000,1008,23.0,2824080,998.3000011444092,2,1.0,False,21,6,high
10000,1009,23.0,2825976,874.1000003814697,4,0.0,False,22,6,high
10000,1010,23.0,2828096,1092.1000003814695,2,0.0,True,23,6,high
10000,1011,23.0,2829963,836.4000015258789,6,2.0,False,24,6,high
10000,1012,23.0,2832045,1052.0,1,0.0,False,25,6,high
10000,1013,23.0,2834112,1048.3000011444092,4,0.0,False,26,6,high
10000,1014,23.0,2835930,793.3000011444092,4,2.0,True,27,6,high
10000,1015,23.0,2837637,676.6000003814697,5,1.0,False,28,6,high
10000,1016,23.0,2839426,779.8000011444092,3,2.0,False,29,6,high
10000,1017,23.0,2841288,847.3999996185303,6,2.0,False,30,6,high
10000,1018,23.0,2842957,657.5,6,0.0,True,31,6,high
10000,1019,23.0,2844921,955.2000007629396,2,2.0,False,32,6,high
10000,1020,23.0,2846750,815.8999996185303,1,0.0,False,33,6,high
10000,1021,23.0,2848623,853.6000003814697,3,1.0,False,34,6,high
10000,1022,23.0,2850534,886.3999996185303,5,1.0,False,35,6,high
10000,1023,23.0,2852341,781.8999996185303,1,0.0,False,36,6,high
10000,1024,23.0,2854068,701.8999996185303,5,2.0,False,37,6,high
10000,1025,23.0,2855935,848.1999988555908,4,1.0,False,38,6,high
10000,1026,23.0,2858011,1042.5,1,2.0,False,39,6,high
10000,1027,23.0,2859998,966.6000003814696,3,1.0,False,40,6,high
10000,1028,23.0,2861686,653.3999996185303,6,2.0,False,41,6,high
10000,1029,23.0,2863514,797.8000011444092,4,2.0,True,42,6,high
10000,1030,23.0,2865581,1043.0,2,0.0,True,43,6,high
10000,1031,23.0,2867169,549.3999996185303,2,0.0,True,44,6,high
10000,1032,23.0,2868900,719.0,3,1.0,False,45,6,high
10000,1033,23.0,2870679,753.1000003814697,5,1.0,False,46,6,high
10000,1034,23.0,2872651,936.6000003814696,3,2.0,False,47,6,high
10000,1035,23.0,2874515,826.6000003814697,1,0.0,False,48,6,high
10000,1036,23.0,2876217,683.6000003814697,6,0.0,True,49,6,high
10000,1037,23.0,2877856,605.3000011444092,5,0.0,True,50,6,high
10000,1038,23.0,2879419,552.6999988555908,6,0.0,True,51,6,high
10000,1039,23.0,2881281,849.2000007629395,4,0.0,False,52,6,high
10000,1040,23.0,2882865,571.5,1,0.0,False,53,6,high
10000,1041,23.0,2884610,714.6000003814697,3,1.0,False,54,6,high
10000,1042,23.0,2886311,687.3999996185303,2,0.0,True,55,6,high
10000,1043,23.0,2887946,627.6999988555908,1,0.0,False,56,6,high
10000,1044,23.0,2889747,780.8999996185303,6,0.0,True,57,6,high
10000,1045,23.0,2891426,668.2999992370605,4,2.0,True,58,6,high
10000,1046,23.0,2893165,715.7000007629395,2,0.0,True,59,6,high
10000,1047,23.0,2894847,663.1999988555908,5,1.0,False,60,6,high
10000,1048,23.0,2896581,695.6000003814697,5,0.0,True,61,6,high
10000,1049,23.0,2898340,734.2999992370605,4,0.0,False,62,6,high
10000,1050,23.0,2900145,785.8999996185303,3,2.0,False,63,6,high
10000,1051,23.0,2901832,673.1999988555908,1,0.0,False,64,6,high
10000,1052,23.0,2903624,774.8999996185303,1,1.0,True,65,6,high
10000,1053,23.0,2905322,679.8000011444092,2,0.0,True,66,6,high
10000,1054,23.0,2907062,723.7999992370605,4,1.0,False,67,6,high
10000,1055,23.0,2908847,741.1000003814697,6,0.0,True,68,6,high
10000,1056,23.0,2910430,539.6999988555908,2,0.0,True,69,6,high
10000,1057,23.0,2912381,932.0999984741212,6,0.0,True,70,6,high
10000,1058,23.0,2914306,895.5,5,2.0,False,71,6,high
10000,1059,23.0,2916214,888.3999996185303,3,1.0,False,72,6,high
10000,1060,23.0,2918074,837.3999996185303,3,2.0,False,73,6,high
10000,1061,23.0,2919769,659.5,2,0.0,True,74,6,high
10000,1062,23.0,2921880,1090.400001525879,5,1.0,False,75,6,high
10000,1063,23.0,2924350,1446.3999996185305,1,2.0,False,76,6,high
10000,1064,23.0,2926039,643.1999988555908,6,0.0,True,77,6,high
10000,1065,23.0,2927760,700.5,4,0.0,False,78,6,high
10000,1066,23.0,2929501,727.5,6,0.0,True,79,6,high
10000,1067,23.0,2931403,880.1000003814697,2,0.0,True,80,6,high
10000,1068,23.0,2933102,678.0,4,2.0,True,81,6,high
10000,1069,23.0,2934842,721.7999992370605,1,0.0,False,82,6,high
10000,1070,23.0,2936912,1051.3999996185305,5,0.0,True,83,6,high
10000,1071,23.0,2938647,710.0999984741211,3,0.0,True,84,6,high
10000,1072,23.0,2940548,872.2000007629395,1,0.0,False,85,6,high
10000,1073,23.0,2942268,691.8999996185303,6,0.0,True,86,6,high
10000,1074,23.0,2943997,702.5,5,1.0,False,87,6,high
10000,1075,23.0,2945614,582.9000015258789,2,0.0,True,88,6,high
10000,1076,23.0,2947431,796.1000003814697,3,0.0,True,89,6,high
10000,1077,23.0,2949481,1029.2000007629397,4,0.0,False,90,6,high
9187,1,1.0,394018,,1,-1.0,False,1,4,high
9187,2,1.0,397042,,2,-1.0,False,2,4,high
9187,3,1.0,400075,,2,-1.0,False,3,4,high
9187,4,1.0,403111,,1,-1.0,False,4,4,high
9187,5,1.0,405026,887.0999999046326,2,1.0,False,5,4,high
9187,6,1.0,407324,1276.2999999523165,1,0.0,False,6,4,high
9187,7,1.0,410351,,1,-1.0,False,7,4,high
9187,8,1.0,413375,,2,-1.0,False,8,4,high
9187,9,1.0,416419,,1,-1.0,False,9,4,high
9187,10,1.0,419446,,2,-1.0,False,10,4,high
9187,11,1.0,422459,,2,-1.0,False,11,4,high
9187,12,1.0,425479,,1,-1.0,False,12,4,high
9187,13,1.0,428524,,1,-1.0,False,13,4,high
9187,14,1.0,430968,1419.0,2,1.0,False,14,4,high
9187,15,1.0,434012,,2,-1.0,False,15,4,high
9187,16,1.0,436586,1550.5,1,0.0,False,16,4,high
9187,17,1.0,439607,,2,-1.0,False,17,4,high
9187,18,1.0,442641,,1,-1.0,False,18,4,high
9187,19,1.0,445681,,1,-1.0,False,19,4,high
9187,20,1.0,447713,1013.2000000476836,2,1.0,False,20,4,high
9187,21,1.0,458452,,4,-1.0,False,21,4,high
9187,22,1.0,461490,,4,-1.0,False,22,4,high
9187,23,1.0,462854,349.90000009536743,3,1.0,False,23,4,high
9187,24,1.0,464721,846.0,4,1.0,True,24,4,high
9187,25,1.0,466147,408.09999990463257,3,1.0,False,25,4,high
9187,26,1.0,468349,1181.1999998092651,3,1.0,False,26,4,high
9187,27,1.0,469879,510.5,4,1.0,True,27,4,high
9187,28,1.0,472910,,3,-1.0,False,28,4,high
9187,29,1.0,474224,289.90000009536743,4,1.0,True,29,4,high
9187,30,1.0,477254,,4,-1.0,False,30,4,high
9187,31,1.0,480048,1772.4000000953674,3,1.0,False,31,4,high
9187,32,1.0,483078,,3,-1.0,False,32,4,high
9187,33,1.0,484468,366.7000000476837,4,1.0,True,33,4,high
9187,34,1.0,487503,,3,-1.0,False,34,4,high
9187,35,1.0,488924,385.59999990463257,4,0.0,False,35,4,high
9187,36,1.0,490223,263.10000014305115,4,1.0,True,36,4,high
9187,37,1.0,491554,321.5,3,0.0,True,37,4,high
9187,38,1.0,492993,414.2000000476837,3,1.0,False,38,4,high
9187,39,1.0,494386,380.7000000476837,4,1.0,True,39,4,high
9187,40,2.0,506863,357.09999990463257,1,2.0,True,1,3,low
9187,41,2.0,508439,554.2999999523163,1,2.0,True,2,3,low
9187,42,2.0,510025,556.2999999523163,1,2.0,True,3,3,low
9187,43,2.0,511500,451.0,1,2.0,True,4,3,low
9187,44,2.0,512996,476.69999980926514,1,2.0,True,5,3,low
9187,45,2.0,514459,440.69999980926514,1,2.0,False,6,3,low
9187,46,2.0,515850,370.0,1,1.0,False,7,3,low
9187,47,2.0,517114,234.40000009536743,1,0.0,True,8,3,low
9187,48,2.0,518736,581.4000000953674,1,0.0,True,9,3,low
9187,49,2.0,520082,323.0,1,0.0,True,10,3,low
9187,50,2.0,521383,272.7999999523163,1,0.0,True,11,3,low
9187,51,2.0,522696,280.5,1,0.0,False,12,3,low
9187,52,2.0,523767,52.0,1,1.0,True,13,3,low
9187,53,2.0,525199,401.7000000476837,1,1.0,True,14,3,low
9187,54,2.0,526491,267.09999990463257,1,1.0,True,15,3,low
9187,55,2.0,527852,341.7000000476837,1,1.0,True,16,3,low
9187,56,2.0,528944,65.59999990463257,1,0.0,False,17,3,low
9187,57,2.0,530273,322.40000009536743,1,1.0,True,18,3,low
9187,58,2.0,531451,147.89999985694885,1,1.0,True,19,3,low
9187,59,2.0,532563,83.69999980926514,1,1.0,True,20,3,low
9187,60,2.0,533897,306.0,1,1.0,True,21,3,low
9187,61,2.0,535170,255.29999995231628,1,1.0,True,22,3,low
9187,62,2.0,536522,332.09999990463257,1,1.0,False,23,3,low
9187,63,2.0,537918,381.0,1,2.0,True,24,3,low
9187,64,2.0,543472,1210.5,3,1.0,True,25,3,low
9187,65,2.0,544900,407.09999990463257,3,1.0,True,26,3,low
9187,66,2.0,546240,314.10000014305115,3,1.0,True,27,3,low
9187,67,2.0,547534,276.90000009536743,3,1.0,True,28,3,low
9187,68,2.0,548893,342.2000000476837,3,1.0,True,29,3,low
9187,69,2.0,550252,331.0,3,1.0,False,30,3,low
9187,70,2.0,551601,321.30000019073486,3,0.0,False,31,3,low
9187,71,2.0,552931,301.7999999523163,3,2.0,True,32,3,low
9187,72,2.0,554255,301.40000009536743,3,2.0,True,33,3,low
9187,73,2.0,555546,276.0,3,2.0,True,34,3,low
9187,74,2.0,556867,309.5,3,0.0,True,35,3,low
9187,75,2.0,558177,291.2999999523163,3,0.0,True,36,3,low
9187,76,2.0,559302,101.40000009536745,3,0.0,True,37,3,low
9187,77,2.0,560532,218.59999990463257,3,0.0,True,38,3,low
9187,78,2.0,561966,405.2000000476837,3,1.0,False,39,3,low
9187,79,2.0,563410,431.2999999523163,3,2.0,True,40,3,low
9187,80,2.0,564661,222.10000014305115,3,2.0,True,41,3,low
9187,81,2.0,565973,286.60000014305115,3,2.0,True,42,3,low
9187,82,2.0,567168,173.40000009536743,3,2.0,True,43,3,low
9187,83,2.0,568497,314.10000014305115,3,1.0,False,44,3,low
9187,84,2.0,569798,287.5,3,2.0,True,45,3,low
9187,85,2.0,571113,296.59999990463257,3,2.0,True,46,3,low
9187,86,2.0,572421,285.39999985694885,3,2.0,True,47,3,low
9187,87,2.0,573758,320.2000000476837,3,2.0,True,48,3,low
9187,88,3.0,584355,662.1000001430511,1,0.0,True,1,2,low
9187,89,3.0,586001,621.8999998569489,2,2.0,True,2,2,low
9187,90,3.0,587475,448.5,1,0.0,True,3,2,low
9187,91,3.0,588780,291.7999999523163,2,2.0,True,4,2,low
9187,92,3.0,590081,277.7000000476837,2,0.0,False,5,2,low
9187,93,3.0,591398,288.40000009536743,1,1.0,False,6,2,low
9187,94,3.0,592747,334.2999999523163,1,2.0,False,7,2,low
9187,95,3.0,594132,370.09999990463257,2,0.0,False,8,2,low
9187,96,3.0,595489,346.0,2,0.0,False,9,2,low
9187,97,3.0,596805,295.90000009536743,1,1.0,False,10,2,low
9187,98,3.0,598203,375.30000019073486,2,2.0,True,11,2,low
9187,99,3.0,599614,382.7999999523163,1,2.0,False,12,2,low
9187,100,3.0,600999,351.69999980926514,1,0.0,True,13,2,low
9187,101,3.0,602442,414.0,2,0.0,False,14,2,low
9187,102,3.0,603767,306.40000009536743,1,1.0,False,15,2,low
9187,103,3.0,605139,350.7000000476837,2,2.0,True,16,2,low
9187,104,3.0,606616,450.4000000953674,2,2.0,True,17,2,low
9187,105,3.0,607954,315.59999990463257,1,0.0,True,18,2,low
9187,106,3.0,609335,354.19999980926514,1,0.0,True,19,2,low
9187,107,3.0,610702,338.2000000476837,2,1.0,False,20,2,low
9187,108,3.0,611963,251.09999990463257,2,2.0,True,21,2,low
9187,109,3.0,613287,302.0,1,2.0,False,22,2,low
9187,110,3.0,614634,324.5,2,0.0,False,23,2,low
9187,111,3.0,615993,344.59999990463257,1,1.0,False,24,2,low
9187,112,3.0,617293,268.10000014305115,1,2.0,False,25,2,low
9187,113,3.0,618555,242.5,2,0.0,False,26,2,low
9187,114,3.0,619940,362.30000019073486,1,1.0,False,27,2,low
9187,115,3.0,621266,307.59999990463257,1,2.0,False,28,2,low
9187,116,3.0,622666,386.9000000953674,2,0.0,False,29,2,low
9187,117,3.0,623967,290.7999999523163,2,2.0,True,30,2,low
9187,118,5.0,633488,549.0,1,1.0,True,1,2,low
9187,119,5.0,634804,283.7999999523163,2,1.0,False,2,2,low
9187,120,5.0,636086,265.59999990463257,2,2.0,True,3,2,low
9187,121,5.0,637623,517.5,1,0.0,False,4,2,low
9187,122,5.0,638957,312.90000009536743,2,1.0,False,5,2,low
9187,123,5.0,640277,311.10000014305115,1,2.0,False,6,2,low
9187,124,5.0,641597,309.69999980926514,1,1.0,True,7,2,low
9187,125,5.0,643086,466.2999999523163,2,2.0,True,8,2,low
9187,126,5.0,644424,312.7999999523163,1,1.0,True,9,2,low
9187,127,5.0,645679,236.90000009536743,1,2.0,False,10,2,low
9187,128,5.0,647110,408.7000000476837,2,2.0,True,11,2,low
9187,129,5.0,648427,290.2999999523163,2,1.0,False,12,2,low
9187,130,5.0,649720,263.5,1,0.0,False,13,2,low
9187,131,5.0,651014,286.30000019073486,2,2.0,True,14,2,low
9187,132,5.0,652414,384.4000000953674,2,1.0,False,15,2,low
9187,133,5.0,653710,264.7000000476837,1,2.0,False,16,2,low
9187,134,5.0,655074,334.2999999523163,2,2.0,True,17,2,low
9187,135,5.0,656437,330.10000014305115,1,1.0,True,18,2,low
9187,136,5.0,657748,296.0,1,2.0,False,19,2,low
9187,137,5.0,659060,284.5,2,1.0,False,20,2,low
9187,138,5.0,660415,324.39999985694885,2,0.0,False,21,2,low
9187,139,5.0,661828,376.0,1,1.0,True,22,2,low
9187,140,5.0,663128,276.10000014305115,2,2.0,True,23,2,low
9187,141,5.0,664464,318.2999999523163,1,1.0,True,24,2,low
9187,142,5.0,665775,289.7000000476837,1,2.0,False,25,2,low
9187,143,5.0,667237,453.59999990463257,2,2.0,True,26,2,low
9187,144,5.0,668529,260.39999985694885,1,1.0,True,27,2,low
9187,145,5.0,669962,408.2999999523163,2,2.0,True,28,2,low
9187,146,5.0,671248,268.7000000476837,2,1.0,False,29,2,low
9187,147,5.0,672718,455.9000000953674,1,1.0,True,30,2,low
9187,148,6.0,678030,1625.4000000953674,1,2.0,True,1,5,high
9187,149,6.0,679906,861.5999999046326,2,0.0,False,2,5,high
9187,150,6.0,681751,834.3000001907349,3,0.0,True,3,5,high
9187,151,6.0,683660,884.2999999523163,4,0.0,True,4,5,high
9187,152,6.0,685530,854.0,5,1.0,False,5,5,high
9187,153,6.0,686864,319.60000014305115,2,2.0,True,6,5,high
9187,154,6.0,688607,720.8999998569489,4,0.0,True,7,5,high
9187,155,6.0,690096,469.4000000953674,1,1.0,False,8,5,high
9187,156,6.0,692020,906.5,3,0.0,True,9,5,high
9187,157,6.0,693489,437.30000019073486,5,2.0,True,10,5,high
9187,158,6.0,694888,358.2999999523163,5,0.0,False,11,5,high
9187,159,6.0,696490,582.9000000953674,2,0.0,False,12,5,high
9187,160,6.0,697949,452.39999985694885,3,2.0,False,13,5,high
9187,161,6.0,699235,261.5,4,0.0,True,14,5,high
9187,162,6.0,700694,443.2000000476837,3,2.0,False,15,5,high
9187,163,6.0,701965,262.90000009536743,1,0.0,False,16,5,high
9187,164,6.0,703285,306.90000009536743,4,1.0,False,17,5,high
9187,165,6.0,704644,339.40000009536743,1,2.0,True,18,5,high
9187,166,6.0,706264,594.2000000476837,5,0.0,False,19,5,high
9187,167,6.0,707611,338.2999999523163,5,2.0,True,20,5,high
9187,168,6.0,709127,498.2000000476837,2,2.0,True,21,5,high
9187,169,6.0,710582,439.59999990463257,4,2.0,False,22,5,high
9187,170,6.0,711940,348.2000000476837,2,0.0,False,23,5,high
9187,171,6.0,713292,332.7999999523163,3,2.0,False,24,5,high
9187,172,6.0,714742,429.19999980926514,1,1.0,False,25,5,high
9187,173,6.0,716100,336.7999999523163,2,0.0,False,26,5,high
9187,174,6.0,717544,414.09999990463257,4,0.0,True,27,5,high
9187,175,6.0,719056,489.2999999523163,3,0.0,True,28,5,high
9187,176,6.0,720555,471.09999990463257,5,0.0,False,29,5,high
9187,177,6.0,721896,318.60000014305115,1,2.0,True,30,5,high
9187,178,6.0,723273,349.89999985694885,1,2.0,True,31,5,high
9187,179,6.0,724630,333.30000019073486,2,0.0,False,32,5,high
9187,180,6.0,726023,364.39999985694885,5,2.0,True,33,5,high
9187,181,6.0,727481,434.0,4,2.0,False,34,5,high
9187,182,6.0,729248,739.9000000953674,3,2.0,False,35,5,high
9187,183,6.0,730584,325.7999999523163,3,0.0,True,36,5,high
9187,184,6.0,732105,504.59999990463257,1,0.0,False,37,5,high
9187,185,6.0,733456,319.90000009536743,2,2.0,True,38,5,high
9187,186,6.0,734860,379.7999999523163,4,2.0,False,39,5,high
9187,187,6.0,736225,342.10000014305115,1,0.0,False,40,5,high
9187,188,6.0,737535,298.2000000476837,5,2.0,True,41,5,high
9187,189,6.0,739000,448.59999990463257,4,2.0,False,42,5,high
9187,190,6.0,740425,405.69999980926514,5,0.0,False,43,5,high
9187,191,6.0,741692,240.89999985694885,3,2.0,False,44,5,high
9187,192,6.0,742773,56.29999995231629,3,0.0,True,45,5,high
9187,193,6.0,744152,358.40000009536743,2,0.0,False,46,5,high
9187,194,6.0,745498,332.5,5,2.0,True,47,5,high
9187,195,6.0,746852,331.7000000476837,2,2.0,True,48,5,high
9187,196,6.0,748281,400.4000000953674,1,2.0,True,49,5,high
9187,197,6.0,749643,348.2000000476837,4,0.0,True,50,5,high
9187,198,6.0,751111,444.39999985694885,4,0.0,True,51,5,high
9187,199,6.0,752526,385.2999999523163,2,0.0,False,52,5,high
9187,200,6.0,753855,309.2999999523163,5,2.0,True,53,5,high
9187,201,6.0,755194,320.59999990463257,3,2.0,False,54,5,high
9187,202,6.0,756555,351.7999999523163,2,0.0,False,55,5,high
9187,203,6.0,757887,308.80000019073486,1,2.0,True,56,5,high
9187,204,6.0,759249,343.5,3,2.0,False,57,5,high
9187,205,6.0,760589,316.39999985694885,1,0.0,False,58,5,high
9187,206,6.0,761838,220.79999995231628,5,2.0,True,59,5,high
9187,207,6.0,763365,513.1000001430511,4,2.0,False,60,5,high
9187,208,6.0,764644,257.09999990463257,3,0.0,True,61,5,high
9187,209,6.0,766086,408.89999985694885,4,0.0,True,62,5,high
9187,210,6.0,767600,490.2000000476837,1,2.0,True,63,5,high
9187,211,6.0,769064,442.89999985694885,2,0.0,False,64,5,high
9187,212,6.0,770406,329.5,5,2.0,True,65,5,high
9187,213,6.0,771771,346.40000009536743,5,0.0,False,66,5,high
9187,214,6.0,772919,137.39999985694885,4,2.0,False,67,5,high
9187,215,6.0,774013,68.29999995231628,3,0.0,True,68,5,high
9187,216,6.0,775446,403.80000019073486,2,2.0,True,69,5,high
9187,217,6.0,776830,362.5,1,0.0,False,70,5,high
9187,218,6.0,778015,156.40000009536743,3,2.0,False,71,5,high
9187,219,6.0,779433,391.39999985694885,1,0.0,False,72,5,high
9187,220,6.0,780756,308.7000000476837,2,1.0,False,73,5,high
9187,221,6.0,782122,343.69999980926514,5,2.0,True,74,5,high
9187,222,6.0,783553,411.7999999523163,4,2.0,False,75,5,high
9187,223,7.0,791427,816.3999998569489,1,2.0,False,1,6,high
9187,224,7.0,793205,747.9000000953674,2,0.0,False,2,6,high
9187,225,7.0,794731,511.5,3,0.0,False,3,6,high
9187,226,7.0,796040,286.7000000476837,4,2.0,False,4,6,high
9187,227,7.0,797359,302.40000009536743,5,0.0,True,5,6,high
9187,228,7.0,798749,369.0,6,2.0,True,6,6,high
9187,229,7.0,800119,347.7999999523163,3,0.0,False,7,6,high
9187,230,7.0,801442,304.40000009536743,1,2.0,False,8,6,high
9187,231,7.0,802726,272.59999990463257,6,0.0,False,9,6,high
9187,232,7.0,804250,495.0,4,2.0,False,10,6,high
9187,233,7.0,805896,615.7999999523163,2,2.0,False,11,6,high
9187,234,7.0,807250,334.5,2,0.0,False,12,6,high
9187,235,7.0,808334,59.29999995231629,5,1.0,False,13,6,high
9187,236,7.0,809760,401.0,4,0.0,False,14,6,high
9187,237,7.0,811091,314.40000009536743,5,2.0,False,15,6,high
9187,238,7.0,812655,557.2000000476837,6,2.0,True,16,6,high
9187,239,7.0,814242,571.7000000476837,3,0.0,False,17,6,high
9187,240,7.0,815590,329.90000009536743,1,2.0,False,18,6,high
9187,241,7.0,817027,421.4000000953674,4,0.0,False,19,6,high
9187,242,7.0,818500,450.7000000476837,1,0.0,True,20,6,high
9187,243,7.0,819880,358.2000000476837,6,2.0,True,21,6,high
9187,244,7.0,821292,389.5,2,0.0,False,22,6,high
9187,245,7.0,822705,386.7000000476837,5,0.0,True,23,6,high
9187,246,7.0,824085,356.39999985694885,3,2.0,False,24,6,high
9187,247,7.0,825412,307.7999999523163,3,2.0,False,25,6,high
9187,248,7.0,826768,323.7000000476837,1,2.0,False,26,6,high
9187,249,7.0,828058,268.7999999523163,4,2.0,False,27,6,high
9187,250,7.0,829404,317.7999999523163,3,2.0,False,28,6,high
9187,251,7.0,830756,326.5,5,2.0,False,29,6,high
9187,252,7.0,832168,386.7999999523163,6,0.0,False,30,6,high
9187,253,7.0,833595,400.30000019073486,2,0.0,False,31,6,high
9187,254,7.0,834856,238.40000009536743,2,0.0,False,32,6,high
9187,255,7.0,836092,210.29999995231628,6,0.0,False,33,6,high
9187,256,7.0,837498,392.2999999523163,5,2.0,False,34,6,high
9187,257,7.0,838524,5.700000047683716,6,0.0,False,35,6,high
9187,258,7.0,839676,125.90000009536745,1,0.0,True,36,6,high
9187,259,7.0,841028,323.7000000476837,3,2.0,False,37,6,high
9187,260,7.0,842390,333.40000009536743,4,2.0,False,38,6,high
9187,261,7.0,843622,207.69999980926517,6,0.0,False,39,6,high
9187,262,7.0,844735,91.09999990463255,2,0.0,False,40,6,high
9187,263,7.0,845763,2.799999952316284,1,2.0,False,41,6,high
9187,264,7.0,847174,395.4000000953674,4,2.0,False,42,6,high
9187,265,7.0,848762,554.2000000476837,1,0.0,True,43,6,high
9187,266,7.0,850352,560.6000001430511,5,2.0,False,44,6,high
9187,267,7.0,851697,316.60000014305115,4,0.0,False,45,6,high
9187,268,7.0,852917,189.90000009536743,2,2.0,False,46,6,high
9187,269,7.0,854468,529.2999999523163,5,2.0,False,47,6,high
9187,270,7.0,855563,63.79999995231629,3,0.0,False,48,6,high
9187,271,7.0,857209,613.5999999046326,3,0.0,False,49,6,high
9187,272,7.0,858587,345.0,6,2.0,True,50,6,high
9187,273,7.0,860200,586.1999998092651,5,2.0,False,51,6,high
9187,274,7.0,861726,497.09999990463257,4,0.0,False,52,6,high
9187,275,7.0,863212,458.6000001430512,2,1.0,True,53,6,high
9187,276,7.0,864875,633.7000000476837,1,1.0,False,54,6,high
9187,277,7.0,866227,324.7999999523163,6,2.0,True,55,6,high
9187,278,7.0,867831,573.3999998569489,1,0.0,True,56,6,high
9187,279,7.0,869184,326.7000000476837,5,1.0,False,57,6,high
9187,280,7.0,870378,163.79999995231628,3,2.0,False,58,6,high
9187,281,7.0,871585,184.2000000476837,4,1.0,True,59,6,high
9187,282,7.0,873080,469.5,4,1.0,True,60,6,high
9187,283,7.0,874449,352.59999990463257,2,0.0,False,61,6,high
9187,284,7.0,875780,305.2999999523163,3,1.0,True,62,6,high
9187,285,7.0,877171,368.39999985694885,6,1.0,False,63,6,high
9187,286,7.0,878567,365.7000000476837,2,0.0,False,64,6,high
9187,287,7.0,879934,352.69999980926514,1,1.0,False,65,6,high
9187,288,7.0,881288,332.0,4,2.0,False,66,6,high
9187,289,7.0,882676,370.59999990463257,5,0.0,True,67,6,high
9187,290,7.0,884111,414.7999999523163,5,1.0,False,68,6,high
9187,291,7.0,885513,375.0,2,2.0,False,69,6,high
9187,292,7.0,887010,482.7000000476837,5,1.0,False,70,6,high
9187,293,7.0,888296,267.39999985694885,6,0.0,False,71,6,high
9187,294,7.0,889623,305.59999990463257,1,2.0,False,72,6,high
9187,295,7.0,891167,514.1000001430511,3,1.0,True,73,6,high
9187,296,7.0,893473,1293.0999999046326,6,2.0,True,74,6,high
9187,297,7.0,895028,527.0,3,0.0,False,75,6,high
9187,298,7.0,896585,525.5,1,2.0,False,76,6,high
9187,299,7.0,898045,435.69999980926514,4,1.0,True,77,6,high
9187,300,7.0,899422,368.2999999523163,2,0.0,False,78,6,high
9187,301,7.0,900773,333.09999990463257,2,1.0,True,79,6,high
9187,302,7.0,902272,475.19999980926514,6,1.0,False,80,6,high
9187,303,7.0,903620,320.0,5,2.0,False,81,6,high
9187,304,7.0,904880,253.7000000476837,4,0.0,False,82,6,high
9187,305,7.0,906242,339.7999999523163,1,1.0,False,83,6,high
9187,306,7.0,907386,128.39999985694885,3,2.0,False,84,6,high
9187,307,7.0,908520,124.5,4,0.0,False,85,6,high
9187,308,7.0,909895,357.80000019073486,5,1.0,False,86,6,high
9187,309,7.0,911261,338.2000000476837,1,2.0,False,87,6,high
9187,310,7.0,912720,435.7999999523163,6,0.0,False,88,6,high
9187,311,7.0,914097,348.7999999523163,2,1.0,True,89,6,high
9187,312,7.0,915594,467.69999980926514,3,0.0,False,90,6,high
9187,313,8.0,922793,1484.2000000476835,1,2.0,False,1,3,low
9187,314,8.0,924794,977.5,2,1.0,True,2,3,low
9187,315,8.0,926833,1016.1999998092653,3,2.0,False,3,3,low
9187,316,8.0,928568,716.2999999523163,2,1.0,True,4,3,low
9187,317,8.0,929972,379.89999985694885,1,0.0,True,5,3,low
9187,318,8.0,931801,809.8999998569489,3,2.0,False,6,3,low
9187,319,8.0,933496,679.7000000476837,3,1.0,True,7,3,low
9187,320,8.0,934994,487.2999999523163,1,0.0,True,8,3,low
9187,321,8.0,936646,644.6999998092651,2,1.0,True,9,3,low
9187,322,8.0,938242,578.3999998569489,1,0.0,True,10,3,low
9187,323,8.0,939599,335.7000000476837,3,1.0,True,11,3,low
9187,324,8.0,941584,954.6999998092653,2,1.0,True,12,3,low
9187,325,8.0,943190,576.6000001430511,2,1.0,True,13,3,low
9187,326,8.0,944850,643.9000000953674,1,0.0,True,14,3,low
9187,327,8.0,946565,690.7999999523163,3,1.0,True,15,3,low
9187,328,8.0,948142,545.2999999523163,3,1.0,True,16,3,low
9187,329,8.0,949748,595.8999998569489,1,0.0,True,17,3,low
9187,330,8.0,951284,502.09999990463257,2,1.0,True,18,3,low
9187,331,8.0,952743,423.7000000476837,1,0.0,True,19,3,low
9187,332,8.0,954318,554.7999999523163,2,0.0,False,20,3,low
9187,333,8.0,955927,580.3999998569489,3,1.0,True,21,3,low
9187,334,8.0,957539,585.5999999046326,3,1.0,True,22,3,low
9187,335,8.0,959087,526.8999998569489,1,0.0,True,23,3,low
9187,336,8.0,960588,482.4000000953674,3,1.0,True,24,3,low
9187,337,8.0,962132,509.30000019073486,2,1.0,True,25,3,low
9187,338,8.0,963551,385.2000000476837,2,1.0,True,26,3,low
9187,339,8.0,965094,528.5,3,0.0,False,27,3,low
9187,340,8.0,966541,431.2999999523163,1,1.0,False,28,3,low
9187,341,8.0,968200,645.1000001430511,2,1.0,True,29,3,low
9187,342,8.0,969778,544.5,1,0.0,True,30,3,low
9187,343,8.0,971121,334.2999999523163,1,1.0,False,31,3,low
9187,344,8.0,972694,541.7000000476837,3,1.0,True,32,3,low
9187,345,8.0,974348,646.5,2,1.0,True,33,3,low
9187,346,8.0,975716,346.0,1,0.0,True,34,3,low
9187,347,8.0,977285,555.0,2,1.0,True,35,3,low
9187,348,8.0,978774,463.2000000476837,3,1.0,True,36,3,low
9187,349,8.0,980145,342.2000000476837,3,1.0,True,37,3,low
9187,350,8.0,981834,670.5999999046326,2,1.0,True,38,3,low
9187,351,8.0,983478,613.5,1,0.0,True,39,3,low
9187,352,8.0,985114,617.4000000953674,1,0.0,True,40,3,low
9187,353,8.0,986598,466.59999990463257,3,1.0,True,41,3,low
9187,354,8.0,988180,548.0,1,0.0,True,42,3,low
9187,355,8.0,989665,465.0,2,1.0,True,43,3,low
9187,356,8.0,991167,474.7000000476837,3,0.0,False,44,3,low
9187,357,8.0,992671,484.2000000476837,2,1.0,True,45,3,low
9187,358,9.0,1002520,1185.5999999046326,1,0.0,True,1,6,high
9187,359,9.0,1004262,724.1999998092651,2,1.0,True,2,6,high
9187,360,9.0,1006192,905.0,3,2.0,True,3,6,high
9187,361,9.0,1007897,694.8999998569489,4,0.0,False,4,6,high
9187,362,9.0,1009466,536.2000000476837,5,1.0,False,5,6,high
9187,363,9.0,1011082,592.2000000476837,6,2.0,True,6,6,high
9187,364,9.0,1012782,674.9000000953674,2,1.0,True,7,6,high
9187,365,9.0,1014533,737.2999999523163,4,0.0,False,8,6,high
9187,366,9.0,1016287,720.6000001430511,6,2.0,True,9,6,high
9187,367,9.0,1018004,702.5,3,1.0,False,10,6,high
9187,368,9.0,1019564,535.1000001430511,1,0.0,True,11,6,high
9187,369,9.0,1021421,836.5,5,1.0,False,12,6,high
9187,370,9.0,1023040,585.6000001430511,1,0.0,True,13,6,high
9187,371,9.0,1024605,554.3999998569489,4,0.0,False,14,6,high
9187,372,9.0,1026284,645.8000001907349,2,1.0,True,15,6,high
9187,373,9.0,1027856,548.5,2,1.0,True,16,6,high
9187,374,9.0,1029509,621.0,6,2.0,True,17,6,high
9187,375,9.0,1031117,590.2000000476837,5,2.0,False,18,6,high
9187,376,9.0,1032801,651.9000000953674,3,2.0,True,19,6,high
9187,377,9.0,1034300,475.5,3,1.0,False,20,6,high
9187,378,9.0,1035906,590.3999998569489,5,2.0,False,21,6,high
9187,379,9.0,1037279,339.09999990463257,1,0.0,True,22,6,high
9187,380,9.0,1039010,705.2999999523163,4,0.0,False,23,6,high
9187,381,9.0,1040654,617.5,6,2.0,True,24,6,high
9187,382,9.0,1042217,538.8000001907349,5,2.0,False,25,6,high
9187,383,9.0,1043900,672.0999999046326,2,1.0,True,26,6,high
9187,384,9.0,1045535,597.8000001907349,1,0.0,True,27,6,high
9187,385,9.0,1047249,695.7000000476837,6,2.0,True,28,6,high
9187,386,9.0,1049001,741.4000000953674,4,1.0,False,29,6,high
9187,387,9.0,1050572,545.2999999523163,3,2.0,True,30,6,high
9187,388,9.0,1052343,749.6999998092651,4,2.0,True,31,6,high
9187,389,9.0,1053961,598.6000001430511,3,2.0,True,32,6,high
9187,390,9.0,1055566,577.7999999523163,6,2.0,True,33,6,high
9187,391,9.0,1057211,618.0999999046326,2,1.0,True,34,6,high
9187,392,9.0,1058958,721.9000000953674,5,2.0,False,35,6,high
9187,393,9.0,1060492,525.0,6,2.0,True,36,6,high
9187,394,9.0,1062088,579.1000001430511,2,1.0,True,37,6,high
9187,395,9.0,1063667,557.5999999046326,1,0.0,True,38,6,high
9187,396,9.0,1065182,491.9000000953674,1,0.0,True,39,6,high
9187,397,9.0,1066974,770.0999999046326,4,2.0,True,40,6,high
9187,398,9.0,1068884,892.0,5,1.0,False,41,6,high
9187,399,9.0,1070370,462.2999999523163,5,1.0,False,42,6,high
9187,400,9.0,1071975,574.5,3,2.0,True,43,6,high
9187,401,9.0,1073687,681.0999999046326,1,0.0,True,44,6,high
9187,402,9.0,1075936,1230.0,2,0.0,False,45,6,high
9187,403,9.0,1077555,603.0999999046326,3,2.0,True,46,6,high
9187,404,9.0,1079085,493.7000000476837,6,2.0,True,47,6,high
9187,405,9.0,1080827,725.2999999523163,4,1.0,False,48,6,high
9187,406,9.0,1082535,679.5,2,1.0,True,49,6,high
9187,407,9.0,1084343,782.1000001430511,4,1.0,False,50,6,high
9187,408,9.0,1085979,618.5,1,0.0,True,51,6,high
9187,409,9.0,1087627,615.3999998569489,5,0.0,True,52,6,high
9187,410,9.0,1089496,838.5,3,2.0,True,53,6,high
9187,411,9.0,1091103,576.2999999523163,4,0.0,False,54,6,high
9187,412,9.0,1092724,600.4000000953674,2,1.0,True,55,6,high
9187,413,9.0,1094231,481.5,6,2.0,True,56,6,high
9187,414,9.0,1095975,720.0,5,0.0,True,57,6,high
9187,415,9.0,1097552,563.7000000476837,6,2.0,True,58,6,high
9187,416,9.0,1099189,612.3000001907349,3,1.0,False,59,6,high
9187,417,9.0,1100778,563.0,1,0.0,True,60,6,high
9187,418,9.0,1102187,390.4000000953674,1,0.0,True,61,6,high
9187,419,9.0,1104119,910.6000001430511,4,2.0,True,62,6,high
9187,420,9.0,1105703,554.3999998569489,3,2.0,True,63,6,high
9187,421,9.0,1107759,1033.5,5,0.0,True,64,6,high
9187,422,9.0,1109408,626.5,2,1.0,True,65,6,high
9187,423,9.0,1110966,535.2999999523163,1,0.0,True,66,6,high
9187,424,9.0,1112561,580.0,6,2.0,True,67,6,high
9187,425,9.0,1114017,420.0,6,2.0,True,68,6,high
9187,426,9.0,1115832,795.4000000953674,4,1.0,False,69,6,high
9187,427,9.0,1117683,842.7999999523163,5,0.0,True,70,6,high
9187,428,9.0,1119499,779.7000000476837,4,2.0,True,71,6,high
9187,429,9.0,1121244,716.0,5,0.0,True,72,6,high
9187,430,9.0,1122862,604.7999999523163,2,2.0,False,73,6,high
9187,431,9.0,1124668,786.0999999046326,3,2.0,True,74,6,high
9187,432,9.0,1126172,473.4000000953674,3,2.0,True,75,6,high
9187,433,9.0,1127848,668.5999999046326,2,1.0,True,76,6,high
9187,434,9.0,1129437,557.7999999523163,1,0.0,True,77,6,high
9187,435,9.0,1131042,586.5,6,2.0,False,78,6,high
9187,436,9.0,1132664,596.5,2,1.0,True,79,6,high
9187,437,9.0,1134277,593.1999998092651,3,2.0,True,80,6,high
9187,438,9.0,1135907,599.2000000476837,1,0.0,True,81,6,high
9187,439,9.0,1137534,615.2000000476837,4,2.0,True,82,6,high
9187,440,9.0,1139447,897.7000000476837,5,0.0,True,83,6,high
9187,441,9.0,1141035,562.2000000476837,6,2.0,False,84,6,high
9187,442,9.0,1142581,520.7999999523163,6,2.0,False,85,6,high
9187,443,9.0,1144210,606.2999999523163,4,0.0,False,86,6,high
9187,444,9.0,1145818,596.9000000953674,3,2.0,True,87,6,high
9187,445,9.0,1147632,778.7999999523163,5,1.0,False,88,6,high
9187,446,9.0,1149386,735.0,2,1.0,True,89,6,high
9187,447,9.0,1150930,524.5,1,0.0,True,90,6,high
9187,448,10.0,1159516,1188.5,1,0.0,False,1,3,low
9187,449,10.0,1161125,584.5999999046326,2,1.0,False,2,3,low
9187,450,10.0,1162430,280.0,3,2.0,False,3,3,low
9187,451,10.0,1163939,489.09999990463257,2,1.0,False,4,3,low
9187,452,10.0,1165168,204.09999990463257,1,0.0,False,5,3,low
9187,453,10.0,1166342,140.0,3,2.0,False,6,3,low
9187,454,10.0,1167720,359.2000000476837,3,1.0,True,7,3,low
9187,455,10.0,1169400,664.5999999046326,2,2.0,True,8,3,low
9187,456,10.0,1170973,542.0,1,0.0,False,9,3,low
9187,457,10.0,1172585,588.6000001430511,1,1.0,True,10,3,low
9187,458,10.0,1174125,529.4000000953674,2,1.0,False,11,3,low
9187,459,10.0,1175623,480.5,3,1.0,True,12,3,low
9187,460,10.0,1177000,369.39999985694885,2,2.0,True,13,3,low
9187,461,10.0,1178772,739.0,3,1.0,True,14,3,low
9187,462,10.0,1180604,812.0,1,1.0,True,15,3,low
9187,463,10.0,1182052,423.0,1,1.0,True,16,3,low
9187,464,10.0,1183748,659.4000000953674,3,2.0,False,17,3,low
9187,465,10.0,1185264,505.1000001430512,2,2.0,True,18,3,low
9187,466,10.0,1186978,700.2000000476837,3,1.0,True,19,3,low
9187,467,10.0,1188754,759.8000001907349,1,2.0,False,20,3,low
9187,468,10.0,1190477,712.0,2,2.0,True,21,3,low
9187,469,10.0,1192031,540.5,2,2.0,True,22,3,low
9187,470,10.0,1193564,512.8000001907349,3,1.0,True,23,3,low
9187,471,10.0,1195032,442.2000000476837,3,1.0,True,24,3,low
9187,472,10.0,1196501,448.19999980926514,1,1.0,True,25,3,low
9187,473,10.0,1197965,436.69999980926514,3,1.0,True,26,3,low
9187,474,10.0,1199418,428.0,2,1.0,False,27,3,low
9187,475,10.0,1201227,788.7000000476837,1,1.0,True,28,3,low
9187,476,10.0,1202809,569.0,2,1.0,False,29,3,low
9187,477,10.0,1204349,521.0,1,1.0,True,30,3,low
9187,478,10.0,1205959,588.0,3,1.0,True,31,3,low
9187,479,10.0,1207648,674.8999998569489,2,2.0,True,32,3,low
9187,480,10.0,1209159,492.89999985694885,1,1.0,True,33,3,low
9187,481,10.0,1210647,468.30000019073486,1,1.0,True,34,3,low
9187,482,10.0,1212081,401.7000000476837,3,1.0,True,35,3,low
9187,483,10.0,1213508,393.7999999523163,2,1.0,False,36,3,low
9187,484,10.0,1214954,421.69999980926514,2,2.0,True,37,3,low
9187,485,10.0,1216526,555.5,3,1.0,True,38,3,low
9187,486,10.0,1218357,809.5,1,1.0,True,39,3,low
9187,487,10.0,1219955,563.1999998092651,1,1.0,True,40,3,low
9187,488,10.0,1221658,684.0,2,2.0,True,41,3,low
9187,489,10.0,1223123,443.0,1,1.0,True,42,3,low
9187,490,10.0,1225007,857.2000000476837,3,1.0,True,43,3,low
9187,491,10.0,1226637,595.1000001430511,2,2.0,True,44,3,low
9187,492,10.0,1228118,472.4000000953674,3,1.0,True,45,3,low
9187,493,11.0,1294217,1797.1999998092651,1,0.0,False,1,2,low
9187,494,11.0,1295867,630.4000000953674,2,2.0,False,2,2,low
9187,495,11.0,1297233,339.89999985694885,1,2.0,False,3,2,low
9187,496,11.0,1298468,224.40000009536743,2,1.0,False,4,2,low
9187,497,11.0,1300104,611.4000000953674,2,1.0,False,5,2,low
9187,498,11.0,1301444,316.39999985694885,1,0.0,False,6,2,low
9187,499,11.0,1302911,442.0,1,0.0,False,7,2,low
9187,500,11.0,1304113,191.79999995231628,2,2.0,False,8,2,low
9187,501,11.0,1305448,321.7000000476837,1,1.0,True,9,2,low
9187,502,11.0,1306764,290.5,2,1.0,False,10,2,low
9187,503,11.0,1308072,297.39999985694885,2,2.0,False,11,2,low
9187,504,11.0,1309592,503.6000001430512,1,1.0,True,12,2,low
9187,505,11.0,1311071,454.0,1,1.0,True,13,2,low
9187,506,11.0,1312515,421.9000000953674,2,0.0,True,14,2,low
9187,507,11.0,1314037,499.4000000953674,1,1.0,True,15,2,low
9187,508,11.0,1315679,618.7000000476837,1,1.0,True,16,2,low
9187,509,11.0,1317050,343.0,2,0.0,True,17,2,low
9187,510,11.0,1318560,502.9000000953674,2,0.0,True,18,2,low
9187,511,11.0,1320024,438.59999990463257,1,0.0,False,19,2,low
9187,512,11.0,1321496,441.5,2,0.0,True,20,2,low
9187,513,11.0,1322833,322.90000009536743,1,1.0,True,21,2,low
9187,514,11.0,1324203,352.2000000476837,1,1.0,True,22,2,low
9187,515,11.0,1325630,405.7999999523163,2,0.0,True,23,2,low
9187,516,11.0,1327066,411.09999990463257,2,0.0,True,24,2,low
9187,517,11.0,1328579,480.39999985694885,1,1.0,True,25,2,low
9187,518,11.0,1329981,387.7999999523163,2,0.0,True,26,2,low
9187,519,11.0,1331430,426.5,2,0.0,True,27,2,low
9187,520,11.0,1332876,432.80000019073486,1,0.0,False,28,2,low
9187,521,11.0,1334402,500.0,2,0.0,True,29,2,low
9187,522,11.0,1335873,447.2000000476837,1,1.0,True,30,2,low
9187,523,13.0,1343224,946.2999999523164,1,0.0,True,1,5,high
9187,524,13.0,1344852,604.9000000953674,2,1.0,True,2,5,high
9187,525,13.0,1346550,669.2000000476837,3,2.0,False,3,5,high
9187,526,13.0,1347987,400.7999999523163,4,0.0,False,4,5,high
9187,527,13.0,1349474,468.59999990463257,5,1.0,False,5,5,high
9187,528,13.0,1350985,493.1000001430512,3,1.0,False,6,5,high
9187,529,13.0,1352452,438.7999999523163,1,1.0,False,7,5,high
9187,530,13.0,1353903,426.9000000953674,4,1.0,True,8,5,high
9187,531,13.0,1355682,752.2999999523163,2,1.0,True,9,5,high
9187,532,13.0,1357384,671.4000000953674,5,1.0,False,10,5,high
9187,533,13.0,1358928,527.2999999523163,5,0.0,True,11,5,high
9187,534,13.0,1360565,612.7000000476837,4,0.0,False,12,5,high
9187,535,13.0,1362117,544.2000000476837,3,0.0,True,13,5,high
9187,536,13.0,1363694,550.5,2,1.0,True,14,5,high
9187,537,13.0,1365255,540.7000000476837,1,1.0,False,15,5,high
9187,538,13.0,1366835,547.9000000953674,2,1.0,True,16,5,high
9187,539,13.0,1368379,518.6999998092651,1,1.0,False,17,5,high
9187,540,13.0,1370298,897.5999999046326,4,1.0,True,18,5,high
9187,541,13.0,1371694,362.5,5,0.0,True,19,5,high
9187,542,13.0,1373418,701.0999999046326,1,0.0,True,20,5,high
9187,543,13.0,1375140,696.3999998569489,3,1.0,False,21,5,high
9187,544,13.0,1376702,529.1000001430511,3,0.0,True,22,5,high
9187,545,13.0,1378442,717.0,4,1.0,True,23,5,high
9187,546,13.0,1380016,550.8999998569489,1,0.0,True,24,5,high
9187,547,13.0,1381614,569.2999999523163,2,1.0,True,25,5,high
9187,548,13.0,1383207,566.2999999523163,5,0.0,True,26,5,high
9187,549,13.0,1384732,490.7000000476837,5,0.0,True,27,5,high
9187,550,13.0,1386178,433.7000000476837,3,1.0,False,28,5,high
9187,551,13.0,1387914,707.7000000476837,4,0.0,False,29,5,high
9187,552,13.0,1389501,562.7000000476837,2,1.0,True,30,5,high
9187,553,13.0,1390894,376.09999990463257,4,1.0,True,31,5,high
9187,554,13.0,1392447,526.2000000476837,2,1.0,True,32,5,high
9187,555,13.0,1394116,645.0999999046326,1,1.0,False,33,5,high
9187,556,13.0,1395721,593.4000000953674,4,1.0,True,34,5,high
9187,557,13.0,1397341,610.5999999046326,5,0.0,True,35,5,high
9187,558,13.0,1399116,749.8999998569489,3,1.0,False,36,5,high
9187,559,13.0,1400743,605.0,1,0.0,True,37,5,high
9187,560,13.0,1402263,500.7000000476837,5,0.0,True,38,5,high
9187,561,13.0,1403776,489.4000000953674,2,0.0,False,39,5,high
9187,562,13.0,1405369,580.0,2,1.0,True,40,5,high
9187,563,13.0,1406956,559.0,3,0.0,True,41,5,high
9187,564,13.0,1408374,395.0,3,0.0,True,42,5,high
9187,565,13.0,1409850,449.5,4,1.0,True,43,5,high
9187,566,13.0,1411398,523.5999999046326,1,0.0,True,44,5,high
9187,567,13.0,1412993,580.7999999523163,5,0.0,True,45,5,high
9187,568,13.0,1414503,485.0,4,1.0,True,46,5,high
9187,569,13.0,1416113,596.4000000953674,5,0.0,True,47,5,high
9187,570,13.0,1417626,488.5,3,1.0,False,48,5,high
9187,571,13.0,1419197,554.8000001907349,2,1.0,True,49,5,high
9187,572,13.0,1420748,534.6999998092651,1,0.0,True,50,5,high
9187,573,13.0,1422494,732.7000000476837,5,0.0,True,51,5,high
9187,574,13.0,1423963,448.2000000476837,3,0.0,True,52,5,high
9187,575,13.0,1425547,569.4000000953674,1,0.0,True,53,5,high
9187,576,13.0,1427221,638.7000000476837,2,1.0,True,54,5,high
9187,577,13.0,1428962,706.1000001430511,4,1.0,True,55,5,high
9187,578,13.0,1430433,442.7999999523163,4,1.0,True,56,5,high
9187,579,13.0,1432139,675.7000000476837,5,0.0,True,57,5,high
9187,580,13.0,1433857,690.7999999523163,2,1.0,True,58,5,high
9187,581,13.0,1435496,613.8999998569489,3,0.0,True,59,5,high
9187,582,13.0,1437056,534.1000001430511,2,1.0,True,60,5,high
9187,583,13.0,1438707,629.0,1,0.0,True,61,5,high
9187,584,13.0,1440328,596.5,3,0.0,True,62,5,high
9187,585,13.0,1441857,494.7000000476837,1,0.0,True,63,5,high
9187,586,13.0,1443330,442.09999990463257,4,1.0,True,64,5,high
9187,587,13.0,1444823,477.59999990463257,4,1.0,True,65,5,high
9187,588,13.0,1446391,543.2999999523163,5,0.0,True,66,5,high
9187,589,13.0,1447950,542.3000001907349,3,1.0,False,67,5,high
9187,590,13.0,1449535,575.9000000953674,5,0.0,True,68,5,high
9187,591,13.0,1451290,738.3999998569489,2,1.0,True,69,5,high
9187,592,13.0,1452936,610.8999998569489,1,0.0,True,70,5,high
9187,593,13.0,1454490,533.1000001430511,4,1.0,True,71,5,high
9187,594,13.0,1455985,482.2999999523163,5,0.0,True,72,5,high
9187,595,13.0,1457514,498.0,1,0.0,True,73,5,high
9187,596,13.0,1458968,438.9000000953674,2,1.0,True,74,5,high
9187,597,13.0,1460547,546.7000000476837,3,0.0,True,75,5,high
9187,598,14.0,1469949,633.8999998569489,1,1.0,False,1,6,high
9187,599,14.0,1471270,304.5,2,0.0,False,2,6,high
9187,600,14.0,1472592,296.2999999523163,3,2.0,False,3,6,high
9187,601,14.0,1474156,544.6999998092651,4,1.0,False,4,6,high
9187,602,14.0,1475490,315.89999985694885,5,2.0,True,5,6,high
9187,603,14.0,1476995,496.2000000476837,6,0.0,False,6,6,high
9187,604,14.0,1478506,476.09999990463257,4,1.0,False,7,6,high
9187,605,14.0,1479849,320.10000014305115,3,2.0,False,8,6,high
9187,606,14.0,1481242,375.2000000476837,1,2.0,False,9,6,high
9187,607,14.0,1482573,310.10000014305115,6,0.0,False,10,6,high
9187,608,14.0,1483898,296.69999980926514,2,1.0,False,11,6,high
9187,609,14.0,1485339,417.5,5,0.0,False,12,6,high
9187,610,14.0,1486881,524.5999999046326,5,0.0,False,13,6,high
9187,611,14.0,1488510,602.0,3,1.0,True,14,6,high
9187,612,14.0,1490313,791.0,2,0.0,False,15,6,high
9187,613,14.0,1491934,594.0,4,1.0,False,16,6,high
9187,614,14.0,1493297,341.7000000476837,1,2.0,False,17,6,high
9187,615,14.0,1494962,632.7999999523163,4,0.0,False,18,6,high
9187,616,14.0,1496353,359.60000014305115,1,2.0,False,19,6,high
9187,617,14.0,1497672,300.39999985694885,6,1.0,True,20,6,high
9187,618,14.0,1499161,479.6000001430512,2,1.0,False,21,6,high
9187,619,14.0,1500467,284.5,1,2.0,False,22,6,high
9187,620,14.0,1501864,369.0,5,0.0,False,23,6,high
9187,621,14.0,1503309,408.7999999523163,5,1.0,False,24,6,high
9187,622,14.0,1505038,697.6000001430511,3,1.0,True,25,6,high
9187,623,14.0,1506786,731.0999999046326,6,1.0,True,26,6,high
9187,624,14.0,1508241,424.39999985694885,6,1.0,True,27,6,high
9187,625,14.0,1510049,782.5,2,1.0,False,28,6,high
9187,626,14.0,1511744,667.5999999046326,4,2.0,True,29,6,high
9187,627,14.0,1513376,616.0,3,2.0,False,30,6,high
9187,628,14.0,1514985,587.0,6,1.0,True,31,6,high
9187,629,14.0,1516884,867.7000000476837,5,1.0,False,32,6,high
9187,630,14.0,1518816,909.4000000953674,1,0.0,True,33,6,high
9187,631,14.0,1520458,612.2999999523163,4,1.0,False,34,6,high
9187,632,14.0,1522252,767.1999998092651,2,0.0,False,35,6,high
9187,633,14.0,1523971,690.5999999046326,3,2.0,False,36,6,high
9187,634,14.0,1525771,778.0,4,2.0,True,37,6,high
9187,635,14.0,1527250,454.1000001430512,3,1.0,True,38,6,high
9187,636,14.0,1528987,714.8000001907349,6,1.0,True,39,6,high
9187,637,14.0,1530440,417.30000019073486,2,1.0,False,40,6,high
9187,638,14.0,1532031,565.0,5,2.0,True,41,6,high
9187,639,14.0,1533418,367.9000000953674,1,2.0,False,42,6,high
9187,640,14.0,1534872,435.7000000476837,1,0.0,True,43,6,high
9187,641,14.0,1536533,636.0999999046326,4,1.0,False,44,6,high
