sona_id,trial_in_experiment,block,stimulus,key_press,correct,rt,time_elapsed,set_size,load_condition,phase_type,source_file,is_practice,trial_in_block,reward
10000,88,3,1,0,0.0,375.5,1011895,2.0,low,main_task,rlwm_trauma_PARTICIPANT_SESSION_2025-11-05_19h45.58.719.csv,False,1,0.0
10000,89,3,2,2,0.0,521.1000003814697,1013439,2.0,low,main_task,rlwm_trauma_PARTICIPANT_SESSION_2025-11-05_19h45.58.719.csv,False,2,0.0
10000,90,3,1,1,1.0,205.0,1014671,2.0,low,main_task,rlwm_trauma_PARTICIPANT_SESSION_2025-11-05_19h45.58.719.csv,False,3,1.0
10000,91,3,1,1,1.0,334.8999996185303,1016051,2.0,low,main_task,rlwm_trauma_PARTICIPANT_SESSION_2025-11-05_19h45.58.719.csv,False,4,1.0
10000,92,3,2,2,0.0,358.9000015258789,1017422,2.0,low,main_task,rlwm_trauma_PARTICIPANT_SESSION_2025-11-05_19h45.58.719.csv,False,5,0.0
10000,93,3,2,0,1.0,409.0,1018851,2.0,low,main_task,rlwm_trauma_PARTICIPANT_SESSION_2025-11-05_19h45.58.719.csv,False,6,1.0
10000,94,3,1,1,1.0,392.79999923706055,1020255,2.0,low,main_task,rlwm_trauma_PARTICIPANT_SESSION_2025-11-05_19h45.58.719.csv,False,7,1.0
10000,95,3,2,0,1.0,329.6000003814697,1021603,2.0,low,main_task,rlwm_trauma_PARTICIPANT_SESSION_2025-11-05_19h45.58.719.csv,False,8,1.0
10000,96,3,2,0,1.0,390.29999923706055,1023007,2.0,low,main_task,rlwm_trauma_PARTICIPANT_SESSION_2025-11-05_19h45.58.719.csv,False,9,1.0
10000,97,3,1,1,1.0,469.70000076293945,1024485,2.0,low,main_task,rlwm_trauma_PARTICIPANT_SESSION_2025-11-05_19h45.58.719.csv,False,10,1.0
10000,98,3,2,1,0.0,387.8000011444092,1025889,2.0,low,main_task,rlwm_trauma_PARTICIPANT_SESSION_2025-11-05_19h45.58.719.csv,False,11,0.0
10000,99,3,1,0,0.0,447.6000003814697,1027364,2.0,low,main_task,rlwm_trauma_PARTICIPANT_SESSION_2025-11-05_19h45.58.719.csv,False,12,0.0
10000,100,3,1,1,1.0,627.8999996185303,1029000,2.0,low,main_task,rlwm_trauma_PARTICIPANT_SESSION_2025-11-05_19h45.58.719.csv,False,13,1.0
10000,101,3,2,0,1.0,265.0,1030287,2.0,low,main_task,rlwm_trauma_PARTICIPANT_SESSION_2025-11-05_19h45.58.719.csv,False,14,1.0
10000,102,3,1,1,1.0,410.20000076293945,1031722,2.0,low,main_task,rlwm_trauma_PARTICIPANT_SESSION_2025-11-05_19h45.58.719.csv,False,15,1.0
10000,103,3,2,0,1.0,458.0999984741211,1033205,2.0,low,main_task,rlwm_trauma_PARTICIPANT_SESSION_2025-11-05_19h45.58.719.csv,False,16,1.0
10000,104,3,2,0,1.0,476.6000003814697,1034705,2.0,low,main_task,rlwm_trauma_PARTICIPANT_SESSION_2025-11-05_19h45.58.719.csv,False,17,1.0
10000,105,3,1,1,1.0,448.8999996185303,1036184,2.0,low,main_task,rlwm_trauma_PARTICIPANT_SESSION_2025-11-05_19h45.58.719.csv,False,18,1.0
10000,106,3,1,1,1.0,518.2999992370605,1037722,2.0,low,main_task,rlwm_trauma_PARTICIPANT_SESSION_2025-11-05_19h45.58.719.csv,False,19,1.0
10000,107,3,2,0,1.0,644.1999988555908,1039395,2.0,low,main_task,rlwm_trauma_PARTICIPANT_SESSION_2025-11-05_19h45.58.719.csv,False,20,1.0
10000,108,3,1,1,1.0,432.8000011444092,1040855,2.0,low,main_task,rlwm_trauma_PARTICIPANT_SESSION_2025-11-05_19h45.58.719.csv,False,21,1.0
10000,109,3,2,0,1.0,492.8999996185303,1042372,2.0,low,main_task,rlwm_trauma_PARTICIPANT_SESSION_2025-11-05_19h45.58.719.csv,False,22,1.0
10000,110,3,2,0,1.0,482.8999996185303,1043884,2.0,low,main_task,rlwm_trauma_PARTICIPANT_SESSION_2025-11-05_19h45.58.719.csv,False,23,1.0
10000,111,3,1,1,1.0,440.0999984741211,1045340,2.0,low,main_task,rlwm_trauma_PARTICIPANT_SESSION_2025-11-05_19h45.58.719.csv,False,24,1.0
10000,112,3,1,0,0.0,360.1999988555908,1046722,2.0,low,main_task,rlwm_trauma_PARTICIPANT_SESSION_2025-11-05_19h45.58.719.csv,False,25,0.0
10000,113,3,2,0,1.0,620.3999996185303,1048356,2.0,low,main_task,rlwm_trauma_PARTICIPANT_SESSION_2025-11-05_19h45.58.719.csv,False,26,1.0
10000,114,3,2,0,1.0,467.70000076293945,1049835,2.0,low,main_task,rlwm_trauma_PARTICIPANT_SESSION_2025-11-05_19h45.58.719.csv,False,27,1.0
10000,115,3,1,1,1.0,406.79999923706055,1051255,2.0,low,main_task,rlwm_trauma_PARTICIPANT_SESSION_2025-11-05_19h45.58.719.csv,False,28,1.0
10000,116,3,2,0,1.0,358.1000003814697,1052638,2.0,low,main_task,rlwm_trauma_PARTICIPANT_SESSION_2025-11-05_19h45.58.719.csv,False,29,1.0
10000,117,3,1,1,1.0,424.1000003814697,1054080,2.0,low,main_task,rlwm_trauma_PARTICIPANT_SESSION_2025-11-05_19h45.58.719.csv,False,30,1.0
10000,118,4,1,0,1.0,428.0,1088620,6.0,high,main_task,rlwm_trauma_PARTICIPANT_SESSION_2025-11-05_19h45.58.719.csv,False,1,1.0
10000,119,4,2,1,0.0,580.0,1090229,6.0,high,main_task,rlwm_trauma_PARTICIPANT_SESSION_2025-11-05_19h45.58.719.csv,False,2,0.0
10000,120,4,3,1,1.0,566.3999996185303,1091833,6.0,high,main_task,rlwm_trauma_PARTICIPANT_SESSION_2025-11-05_19h45.58.719.csv,False,3,1.0
10000,121,4,4,2,0.0,790.7999992370605,1093653,6.0,high,main_task,rlwm_trauma_PARTICIPANT_SESSION_2025-11-05_19h45.58.719.csv,False,4,0.0
10000,122,4,5,0,1.0,776.7999992370605,1095466,6.0,high,main_task,rlwm_trauma_PARTICIPANT_SESSION_2025-11-05_19h45.58.719.csv,False,5,1.0
10000,123,4,6,1,0.0,876.2000007629395,1097352,6.0,high,main_task,rlwm_trauma_PARTICIPANT_SESSION_2025-11-05_19h45.58.719.csv,False,6,0.0
10000,124,4,2,1,0.0,787.3999996185303,1099156,6.0,high,main_task,rlwm_trauma_PARTICIPANT_SESSION_2025-11-05_19h45.58.719.csv,False,7,0.0
10000,125,4,6,2,1.0,707.4000015258789,1100877,6.0,high,main_task,rlwm_trauma_PARTICIPANT_SESSION_2025-11-05_19h45.58.719.csv,False,8,1.0
10000,126,4,1,0,1.0,720.6999988555908,1102628,6.0,high,main_task,rlwm_trauma_PARTICIPANT_SESSION_2025-11-05_19h45.58.719.csv,False,9,1.0
10000,127,4,4,1,0.0,1166.1000003814695,1104824,6.0,high,main_task,rlwm_trauma_PARTICIPANT_SESSION_2025-11-05_19h45.58.719.csv,False,10,0.0
10000,128,4,2,0,0.0,826.6000003814697,1106672,6.0,high,main_task,rlwm_trauma_PARTICIPANT_SESSION_2025-11-05_19h45.58.719.csv,False,11,0.0
10000,129,4,5,0,1.0,836.5,1108536,6.0,high,main_task,rlwm_trauma_PARTICIPANT_SESSION_2025-11-05_19h45.58.719.csv,False,12,1.0
10000,130,4,3,2,0.0,868.0,1110410,6.0,high,main_task,rlwm_trauma_PARTICIPANT_SESSION_2025-11-05_19h45.58.719.csv,False,13,0.0
10000,131,4,3,1,1.0,954.2000007629396,1112390,6.0,high,main_task,rlwm_trauma_PARTICIPANT_SESSION_2025-11-05_19h45.58.719.csv,False,14,1.0
10000,132,4,5,2,0.0,908.7000007629396,1114306,6.0,high,main_task,rlwm_trauma_PARTICIPANT_SESSION_2025-11-05_19h45.58.719.csv,False,15,0.0
10000,133,4,4,2,0.0,1305.0,1116633,6.0,high,main_task,rlwm_trauma_PARTICIPANT_SESSION_2025-11-05_19h45.58.719.csv,False,16,0.0
10000,134,4,6,1,0.0,1069.2999992370603,1118723,6.0,high,main_task,rlwm_trauma_PARTICIPANT_SESSION_2025-11-05_19h45.58.719.csv,False,17,0.0
10000,135,4,1,0,1.0,708.5,1120456,6.0,high,main_task,rlwm_trauma_PARTICIPANT_SESSION_2025-11-05_19h45.58.719.csv,False,18,1.0
10000,136,4,3,0,0.0,509.70000076293945,1121987,6.0,high,main_task,rlwm_trauma_PARTICIPANT_SESSION_2025-11-05_19h45.58.719.csv,False,19,0.0
10000,137,4,4,1,0.0,854.7000007629395,1123857,6.0,high,main_task,rlwm_trauma_PARTICIPANT_SESSION_2025-11-05_19h45.58.719.csv,False,20,0.0
10000,138,4,1,2,0.0,763.4000015258789,1125640,6.0,high,main_task,rlwm_trauma_PARTICIPANT_SESSION_2025-11-05_19h45.58.719.csv,False,21,0.0
10000,139,4,2,0,0.0,942.4000015258788,1127606,6.0,high,main_task,rlwm_trauma_PARTICIPANT_SESSION_2025-11-05_19h45.58.719.csv,False,22,0.0
10000,140,4,5,0,1.0,1120.8000011444092,1129756,6.0,high,main_task,rlwm_trauma_PARTICIPANT_SESSION_2025-11-05_19h45.58.719.csv,False,23,1.0
10000,141,4,6,1,0.0,839.8000011444092,1131623,6.0,high,main_task,rlwm_trauma_PARTICIPANT_SESSION_2025-11-05_19h45.58.719.csv,False,24,0.0
10000,142,4,5,0,1.0,1028.6000003814695,1133671,6.0,high,main_task,rlwm_trauma_PARTICIPANT_SESSION_2025-11-05_19h45.58.719.csv,False,25,1.0
10000,143,4,4,2,0.0,952.1000003814696,1135640,6.0,high,main_task,rlwm_trauma_PARTICIPANT_SESSION_2025-11-05_19h45.58.719.csv,False,26,0.0
10000,144,4,2,0,0.0,866.6000003814697,1137540,6.0,high,main_task,rlwm_trauma_PARTICIPANT_SESSION_2025-11-05_19h45.58.719.csv,False,27,0.0
10000,145,4,1,1,0.0,928.7999992370604,1139490,6.0,high,main_task,rlwm_trauma_PARTICIPANT_SESSION_2025-11-05_19h45.58.719.csv,False,28,0.0
10000,146,4,3,2,0.0,1093.0,1141607,6.0,high,main_task,rlwm_trauma_PARTICIPANT_SESSION_2025-11-05_19h45.58.719.csv,False,29,0.0
10000,147,4,3,0,0.0,838.1999988555908,1143472,6.0,high,main_task,rlwm_trauma_PARTICIPANT_SESSION_2025-11-05_19h45.58.719.csv,False,30,0.0
10000,148,4,2,0,0.0,1082.1000003814695,1145574,6.0,high,main_task,rlwm_trauma_PARTICIPANT_SESSION_2025-11-05_19h45.58.719.csv,False,31,0.0
10000,149,4,6,1,0.0,1633.2000007629397,1148240,6.0,high,main_task,rlwm_trauma_PARTICIPANT_SESSION_2025-11-05_19h45.58.719.csv,False,32,0.0
10000,150,4,6,1,0.0,1540.5,1150807,6.0,high,main_task,rlwm_trauma_PARTICIPANT_SESSION_2025-11-05_19h45.58.719.csv,False,33,0.0
10000,151,4,5,0,1.0,936.1999988555908,1152774,6.0,high,main_task,rlwm_trauma_PARTICIPANT_SESSION_2025-11-05_19h45.58.719.csv,False,34,1.0
10000,152,4,4,1,0.0,913.8999996185304,1154724,6.0,high,main_task,rlwm_trauma_PARTICIPANT_SESSION_2025-11-05_19h45.58.719.csv,False,35,0.0
10000,153,4,5,0,1.0,995.7000007629396,1156740,6.0,high,main_task,rlwm_trauma_PARTICIPANT_SESSION_2025-11-05_19h45.58.719.csv,False,36,1.0
10000,154,4,6,2,1.0,1641.3999996185305,1159407,6.0,high,main_task,rlwm_trauma_PARTICIPANT_SESSION_2025-11-05_19h45.58.719.csv,False,37,1.0
10000,155,4,1,0,1.0,836.5,1161273,6.0,high,main_task,rlwm_trauma_PARTICIPANT_SESSION_2025-11-05_19h45.58.719.csv,False,38,1.0
10000,156,4,2,1,0.0,1063.2000007629397,1163357,6.0,high,main_task,rlwm_trauma_PARTICIPANT_SESSION_2025-11-05_19h45.58.719.csv,False,39,0.0
10000,157,4,4,2,0.0,903.0,1165290,6.0,high,main_task,rlwm_trauma_PARTICIPANT_SESSION_2025-11-05_19h45.58.719.csv,False,40,0.0
10000,158,4,3,2,0.0,1329.2000007629397,1167652,6.0,high,main_task,rlwm_trauma_PARTICIPANT_SESSION_2025-11-05_19h45.58.719.csv,False,41,0.0
10000,159,4,2,0,0.0,1523.0,1170190,6.0,high,main_task,rlwm_trauma_PARTICIPANT_SESSION_2025-11-05_19h45.58.719.csv,False,42,0.0
10000,160,4,5,0,1.0,1105.5,1172324,6.0,high,main_task,rlwm_trauma_PARTICIPANT_SESSION_2025-11-05_19h45.58.719.csv,False,43,1.0
10000,161,4,1,0,1.0,681.7000007629395,1174040,6.0,high,main_task,rlwm_trauma_PARTICIPANT_SESSION_2025-11-05_19h45.58.719.csv,False,44,1.0
10000,162,4,1,0,1.0,812.0,1175874,6.0,high,main_task,rlwm_trauma_PARTICIPANT_SESSION_2025-11-05_19h45.58.719.csv,False,45,1.0
10000,163,4,5,0,1.0,677.0999984741211,1177574,6.0,high,main_task,rlwm_trauma_PARTICIPANT_SESSION_2025-11-05_19h45.58.719.csv,False,46,1.0
10000,164,4,6,0,0.0,1084.1000003814695,1179690,6.0,high,main_task,rlwm_trauma_PARTICIPANT_SESSION_2025-11-05_19h45.58.719.csv,False,47,0.0
10000,165,4,4,0,1.0,966.2999992370604,1181691,6.0,high,main_task,rlwm_trauma_PARTICIPANT_SESSION_2025-11-05_19h45.58.719.csv,False,48,1.0
10000,166,4,6,2,1.0,1091.2999992370603,1183807,6.0,high,main_task,rlwm_trauma_PARTICIPANT_SESSION_2025-11-05_19h45.58.719.csv,False,49,1.0
10000,167,4,3,0,0.0,650.2999992370605,1185488,6.0,high,main_task,rlwm_trauma_PARTICIPANT_SESSION_2025-11-05_19h45.58.719.csv,False,50,0.0
10000,168,4,1,0,1.0,882.0,1187388,6.0,high,main_task,rlwm_trauma_PARTICIPANT_SESSION_2025-11-05_19h45.58.719.csv,False,51,1.0
10000,169,4,4,0,1.0,1310.2000007629397,1189707,6.0,high,main_task,rlwm_trauma_PARTICIPANT_SESSION_2025-11-05_19h45.58.719.csv,False,52,1.0
10000,170,4,2,0,0.0,931.5,1191657,6.0,high,main_task,rlwm_trauma_PARTICIPANT_SESSION_2025-11-05_19h45.58.719.csv,False,53,0.0
10000,171,4,6,2,1.0,1036.7999992370603,1193724,6.0,high,main_task,rlwm_trauma_PARTICIPANT_SESSION_2025-11-05_19h45.58.719.csv,False,54,1.0
10000,172,4,2,1,0.0,689.6000003814697,1195440,6.0,high,main_task,rlwm_trauma_PARTICIPANT_SESSION_2025-11-05_19h45.58.719.csv,False,55,0.0
10000,173,4,5,0,1.0,974.2000007629396,1197440,6.0,high,main_task,rlwm_trauma_PARTICIPANT_SESSION_2025-11-05_19h45.58.719.csv,False,56,1.0
10000,174,4,3,0,0.0,1047.8000011444092,1199507,6.0,high,main_task,rlwm_trauma_PARTICIPANT_SESSION_2025-11-05_19h45.58.719.csv,False,57,0.0
10000,175,4,3,1,1.0,1134.8000011444092,1201674,6.0,high,main_task,rlwm_trauma_PARTICIPANT_SESSION_2025-11-05_19h45.58.719.csv,False,58,1.0
10000,176,4,5,0,1.0,699.8999996185303,1203407,6.0,high,main_task,rlwm_trauma_PARTICIPANT_SESSION_2025-11-05_19h45.58.719.csv,False,59,1.0
10000,177,4,1,0,1.0,654.3999996185303,1205090,6.0,high,main_task,rlwm_trauma_PARTICIPANT_SESSION_2025-11-05_19h45.58.719.csv,False,60,1.0
10000,178,4,2,0,0.0,970.8999996185304,1207091,6.0,high,main_task,rlwm_trauma_PARTICIPANT_SESSION_2025-11-05_19h45.58.719.csv,False,61,0.0
10000,179,4,4,0,1.0,1284.3000011444092,1209406,6.0,high,main_task,rlwm_trauma_PARTICIPANT_SESSION_2025-11-05_19h45.58.719.csv,False,62,1.0
10000,180,4,1,0,1.0,624.1000003814697,1211057,6.0,high,main_task,rlwm_trauma_PARTICIPANT_SESSION_2025-11-05_19h45.58.719.csv,False,63,1.0
10000,181,4,6,2,1.0,1083.1000003814695,1213174,6.0,high,main_task,rlwm_trauma_PARTICIPANT_SESSION_2025-11-05_19h45.58.719.csv,False,64,1.0
10000,182,4,3,1,1.0,646.6000003814697,1214841,6.0,high,main_task,rlwm_trauma_PARTICIPANT_SESSION_2025-11-05_19h45.58.719.csv,False,65,1.0
10000,183,4,4,1,0.0,619.7000007629395,1216491,6.0,high,main_task,rlwm_trauma_PARTICIPANT_SESSION_2025-11-05_19h45.58.719.csv,False,66,0.0
10000,184,4,4,2,0.0,692.6000003814697,1218205,6.0,high,main_task,rlwm_trauma_PARTICIPANT_SESSION_2025-11-05_19h45.58.719.csv,False,67,0.0
10000,185,4,1,0,1.0,596.6000003814697,1219807,6.0,high,main_task,rlwm_trauma_PARTICIPANT_SESSION_2025-11-05_19h45.58.719.csv,False,68,1.0
10000,187,4,5,0,1.0,1154.599998474121,1225006,6.0,high,main_task,rlwm_trauma_PARTICIPANT_SESSION_2025-11-05_19h45.58.719.csv,False,69,1.0
10000,188,4,3,2,0.0,1139.2999992370603,1227175,6.0,high,main_task,rlwm_trauma_PARTICIPANT_SESSION_2025-11-05_19h45.58.719.csv,False,70,0.0
10000,189,4,6,1,0.0,798.6000003814697,1228991,6.0,high,main_task,rlwm_trauma_PARTICIPANT_SESSION_2025-11-05_19h45.58.719.csv,False,71,0.0
10000,190,4,3,0,0.0,322.1999988555908,1230341,6.0,high,main_task,rlwm_trauma_PARTICIPANT_SESSION_2025-11-05_19h45.58.719.csv,False,72,0.0
10000,191,4,4,2,0.0,884.1000003814697,1232257,6.0,high,main_task,rlwm_trauma_PARTICIPANT_SESSION_2025-11-05_19h45.58.719.csv,False,73,0.0
10000,192,4,6,1,0.0,563.7000007629395,1233841,6.0,high,main_task,rlwm_trauma_PARTICIPANT_SESSION_2025-11-05_19h45.58.719.csv,False,74,0.0
10000,193,4,5,0,1.0,630.0,1235491,6.0,high,main_task,rlwm_trauma_PARTICIPANT_SESSION_2025-11-05_19h45.58.719.csv,False,75,1.0
10000,194,4,1,0,1.0,555.5,1237073,6.0,high,main_task,rlwm_trauma_PARTICIPANT_SESSION_2025-11-05_19h45.58.719.csv,False,76,1.0
10000,195,4,5,0,1.0,639.8999996185303,1238741,6.0,high,main_task,rlwm_trauma_PARTICIPANT_SESSION_2025-11-05_19h45.58.719.csv,False,77,1.0
10000,196,4,2,0,0.0,840.2999992370605,1240608,6.0,high,main_task,rlwm_trauma_PARTICIPANT_SESSION_2025-11-05_19h45.58.719.csv,False,78,0.0
10000,197,4,6,2,1.0,946.8999996185304,1242574,6.0,high,main_task,rlwm_trauma_PARTICIPANT_SESSION_2025-11-05_19h45.58.719.csv,False,79,1.0
10000,198,4,1,0,1.0,576.0999984741211,1244175,6.0,high,main_task,rlwm_trauma_PARTICIPANT_SESSION_2025-11-05_19h45.58.719.csv,False,80,1.0
10000,200,4,2,2,1.0,705.6999988555908,1248957,6.0,high,main_task,rlwm_trauma_PARTICIPANT_SESSION_2025-11-05_19h45.58.719.csv,False,81,1.0
10000,201,4,3,1,1.0,982.8999996185304,1250957,6.0,high,main_task,rlwm_trauma_PARTICIPANT_SESSION_2025-11-05_19h45.58.719.csv,False,82,1.0
10000,202,4,4,2,0.0,1177.2999992370603,1253158,6.0,high,main_task,rlwm_trauma_PARTICIPANT_SESSION_2025-11-05_19h45.58.719.csv,False,83,0.0
10000,203,4,4,1,0.0,898.6999988555908,1255075,6.0,high,main_task,rlwm_trauma_PARTICIPANT_SESSION_2025-11-05_19h45.58.719.csv,False,84,0.0
10000,204,4,6,2,1.0,1011.5,1257108,6.0,high,main_task,rlwm_trauma_PARTICIPANT_SESSION_2025-11-05_19h45.58.719.csv,False,85,1.0
10000,205,4,3,1,1.0,706.0,1258842,6.0,high,main_task,rlwm_trauma_PARTICIPANT_SESSION_2025-11-05_19h45.58.719.csv,False,86,1.0
10000,206,4,5,0,1.0,567.7999992370605,1260442,6.0,high,main_task,rlwm_trauma_PARTICIPANT_SESSION_2025-11-05_19h45.58.719.csv,False,87,1.0
10000,207,4,1,0,1.0,628.5,1262092,6.0,high,main_task,rlwm_trauma_PARTICIPANT_SESSION_2025-11-05_19h45.58.719.csv,False,88,1.0
10000,208,5,1,0,0.0,554.8000011444092,1280359,5.0,high,main_task,rlwm_trauma_PARTICIPANT_SESSION_2025-11-05_19h45.58.719.csv,False,1,0.0
10000,209,5,2,1,0.0,508.1000003814697,1281892,5.0,high,main_task,rlwm_trauma_PARTICIPANT_SESSION_2025-11-05_19h45.58.719.csv,False,2,0.0
10000,210,5,3,2,1.0,434.20000076293945,1283359,5.0,high,main_task,rlwm_trauma_PARTICIPANT_SESSION_2025-11-05_19h45.58.719.csv,False,3,1.0
10000,211,5,4,0,0.0,645.1000003814697,1285041,5.0,high,main_task,rlwm_trauma_PARTICIPANT_SESSION_2025-11-05_19h45.58.719.csv,False,4,0.0
10000,212,5,5,1,0.0,506.5999984741211,1286558,5.0,high,main_task,rlwm_trauma_PARTICIPANT_SESSION_2025-11-05_19h45.58.719.csv,False,5,0.0
10000,213,5,1,2,0.0,535.1000003814697,1288131,5.0,high,main_task,rlwm_trauma_PARTICIPANT_SESSION_2025-11-05_19h45.58.719.csv,False,6,0.0
10000,214,5,3,0,0.0,737.2999992370605,1289886,5.0,high,main_task,rlwm_trauma_PARTICIPANT_SESSION_2025-11-05_19h45.58.719.csv,False,7,0.0
10000,215,5,5,1,0.0,382.5,1291275,5.0,high,main_task,rlwm_trauma_PARTICIPANT_SESSION_2025-11-05_19h45.58.719.csv,False,8,0.0
10000,216,5,2,2,1.0,335.20000076293945,1292638,5.0,high,main_task,rlwm_trauma_PARTICIPANT_SESSION_2025-11-05_19h45.58.719.csv,False,9,1.0
10000,217,5,4,1,1.0,584.8000011444092,1294242,5.0,high,main_task,rlwm_trauma_PARTICIPANT_SESSION_2025-11-05_19h45.58.719.csv,False,10,1.0
10000,218,5,2,2,1.0,615.3000011444092,1295892,5.0,high,main_task,rlwm_trauma_PARTICIPANT_SESSION_2025-11-05_19h45.58.719.csv,False,11,1.0
10000,219,5,2,2,1.0,704.5,1297625,5.0,high,main_task,rlwm_trauma_PARTICIPANT_SESSION_2025-11-05_19h45.58.719.csv,False,12,1.0
10000,220,5,4,1,1.0,481.79999923706055,1299142,5.0,high,main_task,rlwm_trauma_PARTICIPANT_SESSION_2025-11-05_19h45.58.719.csv,False,13,1.0
10000,221,5,1,0,0.0,360.29999923706055,1300526,5.0,high,main_task,rlwm_trauma_PARTICIPANT_SESSION_2025-11-05_19h45.58.719.csv,False,14,0.0
10000,222,5,5,1,0.0,691.5,1302242,5.0,high,main_task,rlwm_trauma_PARTICIPANT_SESSION_2025-11-05_19h45.58.719.csv,False,15,0.0
10000,223,5,3,1,0.0,909.5,1304176,5.0,high,main_task,rlwm_trauma_PARTICIPANT_SESSION_2025-11-05_19h45.58.719.csv,False,16,0.0
10000,224,5,5,0,1.0,781.1000003814697,1305976,5.0,high,main_task,rlwm_trauma_PARTICIPANT_SESSION_2025-11-05_19h45.58.719.csv,False,17,1.0
10000,225,5,1,0,0.0,703.0999984741211,1307709,5.0,high,main_task,rlwm_trauma_PARTICIPANT_SESSION_2025-11-05_19h45.58.719.csv,False,18,0.0
10000,226,5,4,1,1.0,1087.5,1309826,5.0,high,main_task,rlwm_trauma_PARTICIPANT_SESSION_2025-11-05_19h45.58.719.csv,False,19,1.0
10000,227,5,4,1,1.0,655.3000011444092,1311509,5.0,high,main_task,rlwm_trauma_PARTICIPANT_SESSION_2025-11-05_19h45.58.719.csv,False,20,1.0
10000,228,5,2,2,1.0,759.2999992370605,1313293,5.0,high,main_task,rlwm_trauma_PARTICIPANT_SESSION_2025-11-05_19h45.58.719.csv,False,21,1.0
10000,229,5,3,0,0.0,534.5,1314859,5.0,high,main_task,rlwm_trauma_PARTICIPANT_SESSION_2025-11-05_19h45.58.719.csv,False,22,0.0
10000,230,5,1,1,1.0,775.3999996185303,1316659,5.0,high,main_task,rlwm_trauma_PARTICIPANT_SESSION_2025-11-05_19h45.58.719.csv,False,23,1.0
10000,231,5,5,2,0.0,1017.6000003814696,1318704,5.0,high,main_task,rlwm_trauma_PARTICIPANT_SESSION_2025-11-05_19h45.58.719.csv,False,24,0.0
10000,232,5,3,1,0.0,640.6999988555908,1320376,5.0,high,main_task,rlwm_trauma_PARTICIPANT_SESSION_2025-11-05_19h45.58.719.csv,False,25,0.0
10000,233,5,3,0,0.0,705.9000015258789,1322108,5.0,high,main_task,rlwm_trauma_PARTICIPANT_SESSION_2025-11-05_19h45.58.719.csv,False,26,0.0
10000,234,5,1,1,1.0,820.1000003814697,1323940,5.0,high,main_task,rlwm_trauma_PARTICIPANT_SESSION_2025-11-05_19h45.58.719.csv,False,27,1.0
10000,235,5,4,1,1.0,859.1000003814697,1325824,5.0,high,main_task,rlwm_trauma_PARTICIPANT_SESSION_2025-11-05_19h45.58.719.csv,False,28,1.0
10000,236,5,5,2,0.0,905.2999992370604,1327741,5.0,high,main_task,rlwm_trauma_PARTICIPANT_SESSION_2025-11-05_19h45.58.719.csv,False,29,0.0
10000,237,5,2,2,1.0,932.0999984741212,1329692,5.0,high,main_task,rlwm_trauma_PARTICIPANT_SESSION_2025-11-05_19h45.58.719.csv,False,30,1.0
10000,238,5,5,1,0.0,1255.0,1331981,5.0,high,main_task,rlwm_trauma_PARTICIPANT_SESSION_2025-11-05_19h45.58.719.csv,False,31,0.0
10000,239,5,1,2,0.0,1133.2999992370603,1334142,5.0,high,main_task,rlwm_trauma_PARTICIPANT_SESSION_2025-11-05_19h45.58.719.csv,False,32,0.0
10000,240,5,3,0,0.0,810.5,1335976,5.0,high,main_task,rlwm_trauma_PARTICIPANT_SESSION_2025-11-05_19h45.58.719.csv,False,33,0.0
10000,241,5,2,2,1.0,790.8000011444092,1337793,5.0,high,main_task,rlwm_trauma_PARTICIPANT_SESSION_2025-11-05_19h45.58.719.csv,False,34,1.0
10000,242,5,1,1,1.0,903.1999988555908,1339726,5.0,high,main_task,rlwm_trauma_PARTICIPANT_SESSION_2025-11-05_19h45.58.719.csv,False,35,1.0
10000,243,5,4,1,1.0,717.1000003814697,1341476,5.0,high,main_task,rlwm_trauma_PARTICIPANT_SESSION_2025-11-05_19h45.58.719.csv,False,36,1.0
10000,244,5,4,1,1.0,736.0999984741211,1343243,5.0,high,main_task,rlwm_trauma_PARTICIPANT_SESSION_2025-11-05_19h45.58.719.csv,False,37,1.0
10000,245,5,5,0,1.0,950.1000003814696,1345207,5.0,high,main_task,rlwm_trauma_PARTICIPANT_SESSION_2025-11-05_19h45.58.719.csv,False,38,1.0
10000,246,5,3,0,0.0,1193.5,1347410,5.0,high,main_task,rlwm_trauma_PARTICIPANT_SESSION_2025-11-05_19h45.58.719.csv,False,39,0.0
10000,247,5,5,0,1.0,1204.3999996185305,1349643,5.0,high,main_task,rlwm_trauma_PARTICIPANT_SESSION_2025-11-05_19h45.58.719.csv,False,40,1.0
10000,248,5,3,1,0.0,905.0,1351576,5.0,high,main_task,rlwm_trauma_PARTICIPANT_SESSION_2025-11-05_19h45.58.719.csv,False,41,0.0
10000,249,5,2,2,1.0,747.0999984741211,1353356,5.0,high,main_task,rlwm_trauma_PARTICIPANT_SESSION_2025-11-05_19h45.58.719.csv,False,42,1.0
10000,250,5,1,1,1.0,943.3000011444092,1355309,5.0,high,main_task,rlwm_trauma_PARTICIPANT_SESSION_2025-11-05_19h45.58.719.csv,False,43,1.0
10000,251,5,3,2,1.0,957.1000003814696,1357293,5.0,high,main_task,rlwm_trauma_PARTICIPANT_SESSION_2025-11-05_19h45.58.719.csv,False,44,1.0
10000,252,5,4,1,1.0,966.2000007629396,1359293,5.0,high,main_task,rlwm_trauma_PARTICIPANT_SESSION_2025-11-05_19h45.58.719.csv,False,45,1.0
10000,253,5,2,2,1.0,588.1999988555908,1360909,5.0,high,main_task,rlwm_trauma_PARTICIPANT_SESSION_2025-11-05_19h45.58.719.csv,False,46,1.0
10000,254,5,2,2,1.0,805.5999984741211,1362743,5.0,high,main_task,rlwm_trauma_PARTICIPANT_SESSION_2025-11-05_19h45.58.719.csv,False,47,1.0
10000,255,5,1,0,0.0,746.5,1364509,5.0,high,main_task,rlwm_trauma_PARTICIPANT_SESSION_2025-11-05_19h45.58.719.csv,False,48,0.0
10000,256,5,5,0,1.0,1138.2999992370603,1366677,5.0,high,main_task,rlwm_trauma_PARTICIPANT_SESSION_2025-11-05_19h45.58.719.csv,False,49,1.0
10000,257,5,3,2,1.0,1157.1000003814695,1368860,5.0,high,main_task,rlwm_trauma_PARTICIPANT_SESSION_2025-11-05_19h45.58.719.csv,False,50,1.0
10000,258,5,4,1,1.0,817.0,1370710,5.0,high,main_task,rlwm_trauma_PARTICIPANT_SESSION_2025-11-05_19h45.58.719.csv,False,51,1.0
10000,259,5,5,0,1.0,980.2999992370604,1372710,5.0,high,main_task,rlwm_trauma_PARTICIPANT_SESSION_2025-11-05_19h45.58.719.csv,False,52,1.0
10000,260,5,4,1,1.0,724.3999996185303,1374460,5.0,high,main_task,rlwm_trauma_PARTICIPANT_SESSION_2025-11-05_19h45.58.719.csv,False,53,1.0
10000,261,5,2,2,1.0,915.2999992370604,1376393,5.0,high,main_task,rlwm_trauma_PARTICIPANT_SESSION_2025-11-05_19h45.58.719.csv,False,54,1.0
10000,262,5,1,1,1.0,714.3999996185303,1378126,5.0,high,main_task,rlwm_trauma_PARTICIPANT_SESSION_2025-11-05_19h45.58.719.csv,False,55,1.0
10000,263,5,5,1,0.0,802.1000003814697,1379960,5.0,high,main_task,rlwm_trauma_PARTICIPANT_SESSION_2025-11-05_19h45.58.719.csv,False,56,0.0
10000,264,5,4,1,1.0,596.0999984741211,1381576,5.0,high,main_task,rlwm_trauma_PARTICIPANT_SESSION_2025-11-05_19h45.58.719.csv,False,57,1.0
10000,265,5,4,1,1.0,586.8999996185303,1383193,5.0,high,main_task,rlwm_trauma_PARTICIPANT_SESSION_2025-11-05_19h45.58.719.csv,False,58,1.0
10000,266,5,3,2,1.0,691.5,1384910,5.0,high,main_task,rlwm_trauma_PARTICIPANT_SESSION_2025-11-05_19h45.58.719.csv,False,59,1.0
10000,267,5,1,0,0.0,962.8000011444092,1386892,5.0,high,main_task,rlwm_trauma_PARTICIPANT_SESSION_2025-11-05_19h45.58.719.csv,False,60,0.0
10000,268,5,3,2,1.0,1033.5,1388943,5.0,high,main_task,rlwm_trauma_PARTICIPANT_SESSION_2025-11-05_19h45.58.719.csv,False,61,1.0
10000,269,5,2,2,1.0,710.6000003814697,1390677,5.0,high,main_task,rlwm_trauma_PARTICIPANT_SESSION_2025-11-05_19h45.58.719.csv,False,62,1.0
10000,270,5,2,2,1.0,693.3000011444092,1392391,5.0,high,main_task,rlwm_trauma_PARTICIPANT_SESSION_2025-11-05_19h45.58.719.csv,False,63,1.0
10000,271,5,4,1,1.0,697.2000007629395,1394107,5.0,high,main_task,rlwm_trauma_PARTICIPANT_SESSION_2025-11-05_19h45.58.719.csv,False,64,1.0
10000,272,5,5,0,1.0,756.0,1395877,5.0,high,main_task,rlwm_trauma_PARTICIPANT_SESSION_2025-11-05_19h45.58.719.csv,False,65,1.0
10000,273,5,1,2,0.0,765.9000015258789,1397671,5.0,high,main_task,rlwm_trauma_PARTICIPANT_SESSION_2025-11-05_19h45.58.719.csv,False,66,0.0
10000,274,5,2,2,1.0,570.0,1399260,5.0,high,main_task,rlwm_trauma_PARTICIPANT_SESSION_2025-11-05_19h45.58.719.csv,False,67,1.0
10000,275,5,5,1,0.0,1011.8999996185304,1401293,5.0,high,main_task,rlwm_trauma_PARTICIPANT_SESSION_2025-11-05_19h45.58.719.csv,False,68,0.0
10000,276,5,3,2,1.0,891.8999996185303,1403210,5.0,high,main_task,rlwm_trauma_PARTICIPANT_SESSION_2025-11-05_19h45.58.719.csv,False,69,1.0
10000,277,5,5,0,1.0,598.7999992370605,1404844,5.0,high,main_task,rlwm_trauma_PARTICIPANT_SESSION_2025-11-05_19h45.58.719.csv,False,70,1.0
10000,278,5,1,1,1.0,684.1999988555908,1406560,5.0,high,main_task,rlwm_trauma_PARTICIPANT_SESSION_2025-11-05_19h45.58.719.csv,False,71,1.0
10000,279,5,1,1,1.0,723.3000011444092,1408310,5.0,high,main_task,rlwm_trauma_PARTICIPANT_SESSION_2025-11-05_19h45.58.719.csv,False,72,1.0
10000,280,5,4,1,1.0,726.5,1410060,5.0,high,main_task,rlwm_trauma_PARTICIPANT_SESSION_2025-11-05_19h45.58.719.csv,False,73,1.0
10000,281,5,2,2,1.0,677.8000011444092,1411759,5.0,high,main_task,rlwm_trauma_PARTICIPANT_SESSION_2025-11-05_19h45.58.719.csv,False,74,1.0
10000,282,5,1,1,1.0,722.9000015258789,1413494,5.0,high,main_task,rlwm_trauma_PARTICIPANT_SESSION_2025-11-05_19h45.58.719.csv,False,75,1.0
10000,283,6,1,1,1.0,487.3999996185303,1428640,2.0,low,main_task,rlwm_trauma_PARTICIPANT_SESSION_2025-11-05_19h45.58.719.csv,False,1,1.0
10000,284,6,2,1,0.0,562.6999988555908,1430210,2.0,low,main_task,rlwm_trauma_PARTICIPANT_SESSION_2025-11-05_19h45.58.719.csv,False,2,0.0
10000,285,6,2,2,0.0,492.1999988555908,1431728,2.0,low,main_task,rlwm_trauma_PARTICIPANT_SESSION_2025-11-05_19h45.58.719.csv,False,3,0.0
10000,286,6,1,1,1.0,791.8999996185303,1433544,2.0,low,main_task,rlwm_trauma_PARTICIPANT_SESSION_2025-11-05_19h45.58.719.csv,False,4,1.0
10000,287,6,2,0,1.0,410.6999988555908,1434977,2.0,low,main_task,rlwm_trauma_PARTICIPANT_SESSION_2025-11-05_19h45.58.719.csv,False,5,1.0
10000,288,6,1,1,1.0,675.7000007629395,1436674,2.0,low,main_task,rlwm_trauma_PARTICIPANT_SESSION_2025-11-05_19h45.58.719.csv,False,6,1.0
10000,289,6,1,1,1.0,655.5999984741211,1438349,2.0,low,main_task,rlwm_trauma_PARTICIPANT_SESSION_2025-11-05_19h45.58.719.csv,False,7,1.0
10000,290,6,2,0,1.0,567.0,1439936,2.0,low,main_task,rlwm_trauma_PARTICIPANT_SESSION_2025-11-05_19h45.58.719.csv,False,8,1.0
10000,291,6,2,0,1.0,598.0,1441563,2.0,low,main_task,rlwm_trauma_PARTICIPANT_SESSION_2025-11-05_19h45.58.719.csv,False,9,1.0
10000,292,6,1,1,1.0,622.8999996185303,1443210,2.0,low,main_task,rlwm_trauma_PARTICIPANT_SESSION_2025-11-05_19h45.58.719.csv,False,10,1.0
10000,293,6,2,1,0.0,644.2999992370605,1444875,2.0,low,main_task,rlwm_trauma_PARTICIPANT_SESSION_2025-11-05_19h45.58.719.csv,False,11,0.0
10000,294,6,1,1,1.0,806.2000007629395,1446690,2.0,low,main_task,rlwm_trauma_PARTICIPANT_SESSION_2025-11-05_19h45.58.719.csv,False,12,1.0
10000,295,6,1,1,1.0,542.2000007629395,1448243,2.0,low,main_task,rlwm_trauma_PARTICIPANT_SESSION_2025-11-05_19h45.58.719.csv,False,13,1.0
10000,296,6,2,0,1.0,556.6000003814697,1449811,2.0,low,main_task,rlwm_trauma_PARTICIPANT_SESSION_2025-11-05_19h45.58.719.csv,False,14,1.0
10000,297,6,1,1,1.0,599.1999988555908,1451444,2.0,low,main_task,rlwm_trauma_PARTICIPANT_SESSION_2025-11-05_19h45.58.719.csv,False,15,1.0
10000,298,6,1,1,1.0,454.20000076293945,1452928,2.0,low,main_task,rlwm_trauma_PARTICIPANT_SESSION_2025-11-05_19h45.58.719.csv,False,16,1.0
10000,299,6,2,0,1.0,579.9000015258789,1454526,2.0,low,main_task,rlwm_trauma_PARTICIPANT_SESSION_2025-11-05_19h45.58.719.csv,False,17,1.0
10000,300,6,2,0,1.0,570.1000003814697,1456127,2.0,low,main_task,rlwm_trauma_PARTICIPANT_SESSION_2025-11-05_19h45.58.719.csv,False,18,1.0
10000,301,6,1,1,1.0,534.2999992370605,1457694,2.0,low,main_task,rlwm_trauma_PARTICIPANT_SESSION_2025-11-05_19h45.58.719.csv,False,19,1.0
10000,302,6,2,0,1.0,778.3999996185303,1459493,2.0,low,main_task,rlwm_trauma_PARTICIPANT_SESSION_2025-11-05_19h45.58.719.csv,False,20,1.0
10000,303,6,2,0,1.0,536.0,1461059,2.0,low,main_task,rlwm_trauma_PARTICIPANT_SESSION_2025-11-05_19h45.58.719.csv,False,21,1.0
10000,304,6,1,1,1.0,454.1999988555908,1462544,2.0,low,main_task,rlwm_trauma_PARTICIPANT_SESSION_2025-11-05_19h45.58.719.csv,False,22,1.0
10000,305,6,1,1,1.0,566.1000003814697,1464128,2.0,low,main_task,rlwm_trauma_PARTICIPANT_SESSION_2025-11-05_19h45.58.719.csv,False,23,1.0
10000,306,6,2,0,1.0,427.8999996185303,1465577,2.0,low,main_task,rlwm_trauma_PARTICIPANT_SESSION_2025-11-05_19h45.58.719.csv,False,24,1.0
10000,307,6,1,1,1.0,460.1999988555908,1467061,2.0,low,main_task,rlwm_trauma_PARTICIPANT_SESSION_2025-11-05_19h45.58.719.csv,False,25,1.0
10000,308,6,2,0,1.0,500.8999996185303,1468582,2.0,low,main_task,rlwm_trauma_PARTICIPANT_SESSION_2025-11-05_19h45.58.719.csv,False,26,1.0
10000,309,6,1,1,0.0,476.29999923706055,1470077,2.0,low,main_task,rlwm_trauma_PARTICIPANT_SESSION_2025-11-05_19h45.58.719.csv,False,27,0.0
10000,310,6,2,0,1.0,428.29999923706055,1471527,2.0,low,main_task,rlwm_trauma_PARTICIPANT_SESSION_2025-11-05_19h45.58.719.csv,False,28,1.0
10000,311,6,2,1,0.0,776.6000003814697,1473327,2.0,low,main_task,rlwm_trauma_PARTICIPANT_SESSION_2025-11-05_19h45.58.719.csv,False,29,0.0
10000,312,6,1,1,0.0,879.7000007629395,1475244,2.0,low,main_task,rlwm_trauma_PARTICIPANT_SESSION_2025-11-05_19h45.58.719.csv,False,30,0.0
10000,313,7,1,0,1.0,447.8999996185303,1491492,3.0,low,main_task,rlwm_trauma_PARTICIPANT_SESSION_2025-11-05_19h45.58.719.csv,False,1,1.0
10000,314,7,2,1,1.0,425.0,1492944,3.0,low,main_task,rlwm_trauma_PARTICIPANT_SESSION_2025-11-05_19h45.58.719.csv,False,2,1.0
10000,315,7,3,2,0.0,632.3000011444092,1494594,3.0,low,main_task,rlwm_trauma_PARTICIPANT_SESSION_2025-11-05_19h45.58.719.csv,False,3,0.0
10000,316,7,3,2,0.0,663.6000003814697,1496278,3.0,low,main_task,rlwm_trauma_PARTICIPANT_SESSION_2025-11-05_19h45.58.719.csv,False,4,0.0
10000,317,7,2,1,1.0,851.7000007629395,1498159,3.0,low,main_task,rlwm_trauma_PARTICIPANT_SESSION_2025-11-05_19h45.58.719.csv,False,5,1.0
10000,318,7,1,0,1.0,866.1000003814697,1500044,3.0,low,main_task,rlwm_trauma_PARTICIPANT_SESSION_2025-11-05_19h45.58.719.csv,False,6,1.0
10000,319,7,3,1,0.0,683.0,1501742,3.0,low,main_task,rlwm_trauma_PARTICIPANT_SESSION_2025-11-05_19h45.58.719.csv,False,7,0.0
10000,320,7,1,0,1.0,666.8999996185303,1503428,3.0,low,main_task,rlwm_trauma_PARTICIPANT_SESSION_2025-11-05_19h45.58.719.csv,False,8,1.0
10000,321,7,2,1,1.0,636.5,1505094,3.0,low,main_task,rlwm_trauma_PARTICIPANT_SESSION_2025-11-05_19h45.58.719.csv,False,9,1.0
10000,322,7,1,0,1.0,797.7000007629395,1506911,3.0,low,main_task,rlwm_trauma_PARTICIPANT_SESSION_2025-11-05_19h45.58.719.csv,False,10,1.0
10000,323,7,3,0,1.0,730.8999996185303,1508662,3.0,low,main_task,rlwm_trauma_PARTICIPANT_SESSION_2025-11-05_19h45.58.719.csv,False,11,1.0
10000,324,7,3,0,1.0,775.8999996185303,1510462,3.0,low,main_task,rlwm_trauma_PARTICIPANT_SESSION_2025-11-05_19h45.58.719.csv,False,12,1.0
10000,325,7,2,1,1.0,675.3999996185303,1512161,3.0,low,main_task,rlwm_trauma_PARTICIPANT_SESSION_2025-11-05_19h45.58.719.csv,False,13,1.0
10000,326,7,2,1,1.0,750.7999992370605,1513945,3.0,low,main_task,rlwm_trauma_PARTICIPANT_SESSION_2025-11-05_19h45.58.719.csv,False,14,1.0
10000,327,7,1,0,1.0,571.8999996185303,1515545,3.0,low,main_task,rlwm_trauma_PARTICIPANT_SESSION_2025-11-05_19h45.58.719.csv,False,15,1.0
10000,328,7,2,1,1.0,727.7000007629395,1517295,3.0,low,main_task,rlwm_trauma_PARTICIPANT_SESSION_2025-11-05_19h45.58.719.csv,False,16,1.0
10000,329,7,3,0,1.0,478.0,1518795,3.0,low,main_task,rlwm_trauma_PARTICIPANT_SESSION_2025-11-05_19h45.58.719.csv,False,17,1.0
10000,330,7,1,0,1.0,657.8999996185303,1520463,3.0,low,main_task,rlwm_trauma_PARTICIPANT_SESSION_2025-11-05_19h45.58.719.csv,False,18,1.0
10000,331,7,3,0,1.0,670.0,1522150,3.0,low,main_task,rlwm_trauma_PARTICIPANT_SESSION_2025-11-05_19h45.58.719.csv,False,19,1.0
10000,332,7,2,1,1.0,590.0,1523762,3.0,low,main_task,rlwm_trauma_PARTICIPANT_SESSION_2025-11-05_19h45.58.719.csv,False,20,1.0
10000,333,7,1,0,1.0,382.6000003814697,1525162,3.0,low,main_task,rlwm_trauma_PARTICIPANT_SESSION_2025-11-05_19h45.58.719.csv,False,21,1.0
10000,334,7,1,0,1.0,493.0,1526678,3.0,low,main_task,rlwm_trauma_PARTICIPANT_SESSION_2025-11-05_19h45.58.719.csv,False,22,1.0
10000,335,7,3,0,1.0,570.0,1528276,3.0,low,main_task,rlwm_trauma_PARTICIPANT_SESSION_2025-11-05_19h45.58.719.csv,False,23,1.0
10000,336,7,1,0,1.0,611.0,1529895,3.0,low,main_task,rlwm_trauma_PARTICIPANT_SESSION_2025-11-05_19h45.58.719.csv,False,24,1.0
10000,337,7,2,1,1.0,528.3999996185303,1531445,3.0,low,main_task,rlwm_trauma_PARTICIPANT_SESSION_2025-11-05_19h45.58.719.csv,False,25,1.0
10000,338,7,3,0,1.0,411.3999996185303,1532878,3.0,low,main_task,rlwm_trauma_PARTICIPANT_SESSION_2025-11-05_19h45.58.719.csv,False,26,1.0
10000,339,7,2,1,1.0,369.5,1534281,3.0,low,main_task,rlwm_trauma_PARTICIPANT_SESSION_2025-11-05_19h45.58.719.csv,False,27,1.0
10000,340,7,2,1,1.0,375.79999923706055,1535678,3.0,low,main_task,rlwm_trauma_PARTICIPANT_SESSION_2025-11-05_19h45.58.719.csv,False,28,1.0
10000,341,7,1,0,1.0,405.29999923706055,1537110,3.0,low,main_task,rlwm_trauma_PARTICIPANT_SESSION_2025-11-05_19h45.58.719.csv,False,29,1.0
10000,342,7,3,0,1.0,402.0,1538521,3.0,low,main_task,rlwm_trauma_PARTICIPANT_SESSION_2025-11-05_19h45.58.719.csv,False,30,1.0
10000,343,7,2,1,1.0,302.20000076293945,1539846,3.0,low,main_task,rlwm_trauma_PARTICIPANT_SESSION_2025-11-05_19h45.58.719.csv,False,31,1.0
10000,344,7,1,0,1.0,571.2999992370605,1541445,3.0,low,main_task,rlwm_trauma_PARTICIPANT_SESSION_2025-11-05_19h45.58.719.csv,False,32,1.0
10000,345,7,1,0,1.0,551.4000015258789,1543026,3.0,low,main_task,rlwm_trauma_PARTICIPANT_SESSION_2025-11-05_19h45.58.719.csv,False,33,1.0
10000,346,7,3,0,1.0,638.6999988555908,1544677,3.0,low,main_task,rlwm_trauma_PARTICIPANT_SESSION_2025-11-05_19h45.58.719.csv,False,34,1.0
10000,347,7,3,0,1.0,508.1000003814697,1546195,3.0,low,main_task,rlwm_trauma_PARTICIPANT_SESSION_2025-11-05_19h45.58.719.csv,False,35,1.0
10000,348,7,2,1,1.0,327.9000015258789,1547546,3.0,low,main_task,rlwm_trauma_PARTICIPANT_SESSION_2025-11-05_19h45.58.719.csv,False,36,1.0
10000,349,7,3,0,1.0,389.1000003814697,1548955,3.0,low,main_task,rlwm_trauma_PARTICIPANT_SESSION_2025-11-05_19h45.58.719.csv,False,37,1.0
10000,350,7,1,0,1.0,553.1999988555908,1550526,3.0,low,main_task,rlwm_trauma_PARTICIPANT_SESSION_2025-11-05_19h45.58.719.csv,False,38,1.0
10000,351,7,2,1,1.0,590.5,1552127,3.0,low,main_task,rlwm_trauma_PARTICIPANT_SESSION_2025-11-05_19h45.58.719.csv,False,39,1.0
10000,352,7,2,1,1.0,478.3999996185303,1553629,3.0,low,main_task,rlwm_trauma_PARTICIPANT_SESSION_2025-11-05_19h45.58.719.csv,False,40,1.0
10000,353,7,3,0,1.0,437.6000003814697,1555094,3.0,low,main_task,rlwm_trauma_PARTICIPANT_SESSION_2025-11-05_19h45.58.719.csv,False,41,1.0
10000,354,7,2,1,1.0,371.1000003814697,1556495,3.0,low,main_task,rlwm_trauma_PARTICIPANT_SESSION_2025-11-05_19h45.58.719.csv,False,42,1.0
10000,355,7,1,0,1.0,397.1000003814697,1557931,3.0,low,main_task,rlwm_trauma_PARTICIPANT_SESSION_2025-11-05_19h45.58.719.csv,False,43,1.0
10000,356,7,1,0,1.0,479.1999988555908,1559429,3.0,low,main_task,rlwm_trauma_PARTICIPANT_SESSION_2025-11-05_19h45.58.719.csv,False,44,1.0
10000,357,7,3,0,1.0,578.0,1561029,3.0,low,main_task,rlwm_trauma_PARTICIPANT_SESSION_2025-11-05_19h45.58.719.csv,False,45,1.0
10000,358,10,1,0,0.0,499.29999923706055,1566079,2.0,low,main_task,rlwm_trauma_PARTICIPANT_SESSION_2025-11-05_19h45.58.719.csv,False,1,0.0
10000,359,10,2,1,0.0,457.8000011444092,1567561,2.0,low,main_task,rlwm_trauma_PARTICIPANT_SESSION_2025-11-05_19h45.58.719.csv,False,2,0.0
10000,360,10,2,0,1.0,488.5,1569085,2.0,low,main_task,rlwm_trauma_PARTICIPANT_SESSION_2025-11-05_19h45.58.719.csv,False,3,1.0
10000,361,10,1,1,0.0,580.6999988555908,1570679,2.0,low,main_task,rlwm_trauma_PARTICIPANT_SESSION_2025-11-05_19h45.58.719.csv,False,4,0.0
10000,362,10,2,0,1.0,471.20000076293945,1572179,2.0,low,main_task,rlwm_trauma_PARTICIPANT_SESSION_2025-11-05_19h45.58.719.csv,False,5,1.0
10000,363,10,1,2,1.0,327.0,1573529,2.0,low,main_task,rlwm_trauma_PARTICIPANT_SESSION_2025-11-05_19h45.58.719.csv,False,6,1.0
10000,364,10,1,0,0.0,753.3999996185303,1575312,2.0,low,main_task,rlwm_trauma_PARTICIPANT_SESSION_2025-11-05_19h45.58.719.csv,False,7,0.0
10000,365,10,2,0,1.0,573.0,1576913,2.0,low,main_task,rlwm_trauma_PARTICIPANT_SESSION_2025-11-05_19h45.58.719.csv,False,8,1.0
10000,366,10,1,2,1.0,469.3999996185303,1578411,2.0,low,main_task,rlwm_trauma_PARTICIPANT_SESSION_2025-11-05_19h45.58.719.csv,False,9,1.0
10000,367,10,2,0,1.0,411.6000003814697,1579846,2.0,low,main_task,rlwm_trauma_PARTICIPANT_SESSION_2025-11-05_19h45.58.719.csv,False,10,1.0
10000,368,10,2,0,1.0,529.2999992370605,1581396,2.0,low,main_task,rlwm_trauma_PARTICIPANT_SESSION_2025-11-05_19h45.58.719.csv,False,11,1.0
10000,369,10,1,2,1.0,415.5,1582846,2.0,low,main_task,rlwm_trauma_PARTICIPANT_SESSION_2025-11-05_19h45.58.719.csv,False,12,1.0
10000,370,10,1,2,1.0,607.2999992370605,1584473,2.0,low,main_task,rlwm_trauma_PARTICIPANT_SESSION_2025-11-05_19h45.58.719.csv,False,13,1.0
10000,371,10,2,0,1.0,542.3999996185303,1586029,2.0,low,main_task,rlwm_trauma_PARTICIPANT_SESSION_2025-11-05_19h45.58.719.csv,False,14,1.0
10000,372,10,1,2,1.0,411.4000015258789,1587463,2.0,low,main_task,rlwm_trauma_PARTICIPANT_SESSION_2025-11-05_19h45.58.719.csv,False,15,1.0
10000,373,10,1,2,1.0,568.5,1589062,2.0,low,main_task,rlwm_trauma_PARTICIPANT_SESSION_2025-11-05_19h45.58.719.csv,False,16,1.0
10000,374,10,2,0,1.0,510.0,1590594,2.0,low,main_task,rlwm_trauma_PARTICIPANT_SESSION_2025-11-05_19h45.58.719.csv,False,17,1.0
10000,375,10,2,0,1.0,531.0,1592146,2.0,low,main_task,rlwm_trauma_PARTICIPANT_SESSION_2025-11-05_19h45.58.719.csv,False,18,1.0
10000,376,10,1,2,1.0,443.3000011444092,1593615,2.0,low,main_task,rlwm_trauma_PARTICIPANT_SESSION_2025-11-05_19h45.58.719.csv,False,19,1.0
10000,377,10,2,0,1.0,391.5,1595029,2.0,low,main_task,rlwm_trauma_PARTICIPANT_SESSION_2025-11-05_19h45.58.719.csv,False,20,1.0
10000,378,10,2,0,1.0,513.2999992370605,1596563,2.0,low,main_task,rlwm_trauma_PARTICIPANT_SESSION_2025-11-05_19h45.58.719.csv,False,21,1.0
10000,379,10,1,2,1.0,495.4000015258789,1598079,2.0,low,main_task,rlwm_trauma_PARTICIPANT_SESSION_2025-11-05_19h45.58.719.csv,False,22,1.0
10000,380,10,2,0,1.0,531.8999996185303,1599642,2.0,low,main_task,rlwm_trauma_PARTICIPANT_SESSION_2025-11-05_19h45.58.719.csv,False,23,1.0
10000,381,10,1,2,1.0,698.6000003814697,1601346,2.0,low,main_task,rlwm_trauma_PARTICIPANT_SESSION_2025-11-05_19h45.58.719.csv,False,24,1.0
10000,382,10,1,0,0.0,444.20000076293945,1602821,2.0,low,main_task,rlwm_trauma_PARTICIPANT_SESSION_2025-11-05_19h45.58.719.csv,False,25,0.0
10000,383,10,2,0,1.0,554.8999996185303,1604396,2.0,low,main_task,rlwm_trauma_PARTICIPANT_SESSION_2025-11-05_19h45.58.719.csv,False,26,1.0
10000,384,10,2,0,1.0,468.5,1605896,2.0,low,main_task,rlwm_trauma_PARTICIPANT_SESSION_2025-11-05_19h45.58.719.csv,False,27,1.0
10000,385,10,1,2,1.0,489.9000015258789,1607413,2.0,low,main_task,rlwm_trauma_PARTICIPANT_SESSION_2025-11-05_19h45.58.719.csv,False,28,1.0
10000,386,10,2,0,0.0,475.0,1608913,2.0,low,main_task,rlwm_trauma_PARTICIPANT_SESSION_2025-11-05_19h45.58.719.csv,False,29,0.0
10000,387,10,1,2,1.0,683.3999996185303,1610629,2.0,low,main_task,rlwm_trauma_PARTICIPANT_SESSION_2025-11-05_19h45.58.719.csv,False,30,1.0
10000,388,11,1,0,0.0,556.0,1619897,5.0,high,main_task,rlwm_trauma_PARTICIPANT_SESSION_2025-11-05_19h45.58.719.csv,False,1,0.0
10000,389,11,2,1,0.0,530.9000015258789,1621446,5.0,high,main_task,rlwm_trauma_PARTICIPANT_SESSION_2025-11-05_19h45.58.719.csv,False,2,0.0
10000,390,11,3,0,0.0,792.4000015258789,1623263,5.0,high,main_task,rlwm_trauma_PARTICIPANT_SESSION_2025-11-05_19h45.58.719.csv,False,3,0.0
10000,391,11,4,0,1.0,566.5999984741211,1624863,5.0,high,main_task,rlwm_trauma_PARTICIPANT_SESSION_2025-11-05_19h45.58.719.csv,False,4,1.0
10000,392,11,5,1,0.0,664.7999992370605,1626546,5.0,high,main_task,rlwm_trauma_PARTICIPANT_SESSION_2025-11-05_19h45.58.719.csv,False,5,0.0
10000,393,11,4,0,1.0,661.8999996185303,1628230,5.0,high,main_task,rlwm_trauma_PARTICIPANT_SESSION_2025-11-05_19h45.58.719.csv,False,6,1.0
10000,394,11,3,2,1.0,746.8000011444092,1630009,5.0,high,main_task,rlwm_trauma_PARTICIPANT_SESSION_2025-11-05_19h45.58.719.csv,False,7,1.0
10000,395,11,2,1,0.0,735.1000003814697,1631762,5.0,high,main_task,rlwm_trauma_PARTICIPANT_SESSION_2025-11-05_19h45.58.719.csv,False,8,0.0
10000,396,11,1,2,0.0,901.6999988555908,1633695,5.0,high,main_task,rlwm_trauma_PARTICIPANT_SESSION_2025-11-05_19h45.58.719.csv,False,9,0.0
10000,397,11,5,1,0.0,1002.5,1635713,5.0,high,main_task,rlwm_trauma_PARTICIPANT_SESSION_2025-11-05_19h45.58.719.csv,False,10,0.0
10000,398,11,4,0,1.0,654.1000003814697,1637394,5.0,high,main_task,rlwm_trauma_PARTICIPANT_SESSION_2025-11-05_19h45.58.719.csv,False,11,1.0
10000,399,11,1,0,0.0,705.5,1639113,5.0,high,main_task,rlwm_trauma_PARTICIPANT_SESSION_2025-11-05_19h45.58.719.csv,False,12,0.0
10000,400,11,1,2,0.0,848.5,1640987,5.0,high,main_task,rlwm_trauma_PARTICIPANT_SESSION_2025-11-05_19h45.58.719.csv,False,13,0.0
10000,401,11,3,2,1.0,1246.2999992370603,1643253,5.0,high,main_task,rlwm_trauma_PARTICIPANT_SESSION_2025-11-05_19h45.58.719.csv,False,14,1.0
10000,402,11,2,0,1.0,1289.5,1645564,5.0,high,main_task,rlwm_trauma_PARTICIPANT_SESSION_2025-11-05_19h45.58.719.csv,False,15,1.0
10000,403,11,5,1,0.0,597.8999996185303,1647180,5.0,high,main_task,rlwm_trauma_PARTICIPANT_SESSION_2025-11-05_19h45.58.719.csv,False,16,0.0
10000,404,11,3,2,1.0,1087.7000007629397,1649297,5.0,high,main_task,rlwm_trauma_PARTICIPANT_SESSION_2025-11-05_19h45.58.719.csv,False,17,1.0
10000,405,11,5,2,1.0,786.1999988555908,1651107,5.0,high,main_task,rlwm_trauma_PARTICIPANT_SESSION_2025-11-05_19h45.58.719.csv,False,18,1.0
10000,406,11,4,0,1.0,759.7999992370605,1652880,5.0,high,main_task,rlwm_trauma_PARTICIPANT_SESSION_2025-11-05_19h45.58.719.csv,False,19,1.0
10000,407,11,4,0,1.0,664.7999992370605,1654563,5.0,high,main_task,rlwm_trauma_PARTICIPANT_SESSION_2025-11-05_19h45.58.719.csv,False,20,1.0
10000,408,11,2,1,0.0,698.2000007629395,1656280,5.0,high,main_task,rlwm_trauma_PARTICIPANT_SESSION_2025-11-05_19h45.58.719.csv,False,21,0.0
10000,409,11,1,2,0.0,780.1000003814697,1658080,5.0,high,main_task,rlwm_trauma_PARTICIPANT_SESSION_2025-11-05_19h45.58.719.csv,False,22,0.0
10000,410,11,2,2,0.0,1129.8999996185305,1660230,5.0,high,main_task,rlwm_trauma_PARTICIPANT_SESSION_2025-11-05_19h45.58.719.csv,False,23,0.0
10000,411,11,3,0,0.0,771.5999984741211,1662030,5.0,high,main_task,rlwm_trauma_PARTICIPANT_SESSION_2025-11-05_19h45.58.719.csv,False,24,0.0
10000,412,11,5,1,0.0,715.5,1663764,5.0,high,main_task,rlwm_trauma_PARTICIPANT_SESSION_2025-11-05_19h45.58.719.csv,False,25,0.0
10000,413,11,1,2,0.0,450.5,1665233,5.0,high,main_task,rlwm_trauma_PARTICIPANT_SESSION_2025-11-05_19h45.58.719.csv,False,26,0.0
10000,414,11,3,0,0.0,711.0,1666963,5.0,high,main_task,rlwm_trauma_PARTICIPANT_SESSION_2025-11-05_19h45.58.719.csv,False,27,0.0
10000,415,11,4,0,1.0,849.6999988555908,1668850,5.0,high,main_task,rlwm_trauma_PARTICIPANT_SESSION_2025-11-05_19h45.58.719.csv,False,28,1.0
10000,416,11,5,2,1.0,907.6999988555908,1670774,5.0,high,main_task,rlwm_trauma_PARTICIPANT_SESSION_2025-11-05_19h45.58.719.csv,False,29,1.0
10000,417,11,5,2,1.0,675.7999992370605,1672464,5.0,high,main_task,rlwm_trauma_PARTICIPANT_SESSION_2025-11-05_19h45.58.719.csv,False,30,1.0
10000,418,11,2,1,0.0,772.2999992370605,1674263,5.0,high,main_task,rlwm_trauma_PARTICIPANT_SESSION_2025-11-05_19h45.58.719.csv,False,31,0.0
10000,419,11,3,2,1.0,1011.8000011444092,1676297,5.0,high,main_task,rlwm_trauma_PARTICIPANT_SESSION_2025-11-05_19h45.58.719.csv,False,32,1.0
10000,420,11,2,0,1.0,589.5,1677914,5.0,high,main_task,rlwm_trauma_PARTICIPANT_SESSION_2025-11-05_19h45.58.719.csv,False,33,1.0
10000,421,11,4,0,1.0,560.6999988555908,1679497,5.0,high,main_task,rlwm_trauma_PARTICIPANT_SESSION_2025-11-05_19h45.58.719.csv,False,34,1.0
10000,422,11,1,2,0.0,889.5,1681413,5.0,high,main_task,rlwm_trauma_PARTICIPANT_SESSION_2025-11-05_19h45.58.719.csv,False,35,0.0
10000,423,11,1,1,1.0,747.2000007629395,1683196,5.0,high,main_task,rlwm_trauma_PARTICIPANT_SESSION_2025-11-05_19h45.58.719.csv,False,36,1.0
10000,424,11,4,0,1.0,693.4000015258789,1684914,5.0,high,main_task,rlwm_trauma_PARTICIPANT_SESSION_2025-11-05_19h45.58.719.csv,False,37,1.0
10000,425,11,2,0,1.0,603.6000003814697,1686548,5.0,high,main_task,rlwm_trauma_PARTICIPANT_SESSION_2025-11-05_19h45.58.719.csv,False,38,1.0
10000,426,11,5,2,1.0,673.1999988555908,1688247,5.0,high,main_task,rlwm_trauma_PARTICIPANT_SESSION_2025-11-05_19h45.58.719.csv,False,39,1.0
10000,427,11,3,2,1.0,908.7000007629396,1690180,5.0,high,main_task,rlwm_trauma_PARTICIPANT_SESSION_2025-11-05_19h45.58.719.csv,False,40,1.0
10000,428,11,4,0,1.0,845.0,1692047,5.0,high,main_task,rlwm_trauma_PARTICIPANT_SESSION_2025-11-05_19h45.58.719.csv,False,41,1.0
10000,429,11,1,1,1.0,607.1000003814697,1693678,5.0,high,main_task,rlwm_trauma_PARTICIPANT_SESSION_2025-11-05_19h45.58.719.csv,False,42,1.0
10000,430,11,2,0,1.0,726.5,1695412,5.0,high,main_task,rlwm_trauma_PARTICIPANT_SESSION_2025-11-05_19h45.58.719.csv,False,43,1.0
10000,431,11,3,2,1.0,706.6000003814697,1697131,5.0,high,main_task,rlwm_trauma_PARTICIPANT_SESSION_2025-11-05_19h45.58.719.csv,False,44,1.0
10000,432,11,2,0,1.0,724.0,1698881,5.0,high,main_task,rlwm_trauma_PARTICIPANT_SESSION_2025-11-05_19h45.58.719.csv,False,45,1.0
10000,433,11,5,2,1.0,720.2000007629395,1700631,5.0,high,main_task,rlwm_trauma_PARTICIPANT_SESSION_2025-11-05_19h45.58.719.csv,False,46,1.0
10000,434,11,3,1,0.0,594.6000003814697,1702247,5.0,high,main_task,rlwm_trauma_PARTICIPANT_SESSION_2025-11-05_19h45.58.719.csv,False,47,0.0
10000,435,11,1,2,0.0,714.8999996185303,1703997,5.0,high,main_task,rlwm_trauma_PARTICIPANT_SESSION_2025-11-05_19h45.58.719.csv,False,48,0.0
10000,436,11,5,0,0.0,855.2999992370605,1705881,5.0,high,main_task,rlwm_trauma_PARTICIPANT_SESSION_2025-11-05_19h45.58.719.csv,False,49,0.0
10000,437,11,4,0,1.0,627.7999992370605,1707531,5.0,high,main_task,rlwm_trauma_PARTICIPANT_SESSION_2025-11-05_19h45.58.719.csv,False,50,1.0
10000,438,11,4,0,1.0,529.0999984741211,1709081,5.0,high,main_task,rlwm_trauma_PARTICIPANT_SESSION_2025-11-05_19h45.58.719.csv,False,51,1.0
10000,439,11,2,0,1.0,666.2999992370605,1710781,5.0,high,main_task,rlwm_trauma_PARTICIPANT_SESSION_2025-11-05_19h45.58.719.csv,False,52,1.0
10000,440,11,5,2,1.0,673.1000003814697,1712481,5.0,high,main_task,rlwm_trauma_PARTICIPANT_SESSION_2025-11-05_19h45.58.719.csv,False,53,1.0
10000,441,11,1,1,1.0,552.6000003814697,1714064,5.0,high,main_task,rlwm_trauma_PARTICIPANT_SESSION_2025-11-05_19h45.58.719.csv,False,54,1.0
10000,442,11,3,1,0.0,914.9000015258788,1716015,5.0,high,main_task,rlwm_trauma_PARTICIPANT_SESSION_2025-11-05_19h45.58.719.csv,False,55,0.0
10000,443,11,1,1,1.0,837.8999996185303,1717881,5.0,high,main_task,rlwm_trauma_PARTICIPANT_SESSION_2025-11-05_19h45.58.719.csv,False,56,1.0
10000,444,11,2,0,1.0,457.6000003814697,1719364,5.0,high,main_task,rlwm_trauma_PARTICIPANT_SESSION_2025-11-05_19h45.58.719.csv,False,57,1.0
10000,445,11,5,2,1.0,664.6000003814697,1721064,5.0,high,main_task,rlwm_trauma_PARTICIPANT_SESSION_2025-11-05_19h45.58.719.csv,False,58,1.0
10000,446,11,4,0,1.0,755.7999992370605,1722847,5.0,high,main_task,rlwm_trauma_PARTICIPANT_SESSION_2025-11-05_19h45.58.719.csv,False,59,1.0
10000,447,11,4,0,0.0,579.8999996185303,1724459,5.0,high,main_task,rlwm_trauma_PARTICIPANT_SESSION_2025-11-05_19h45.58.719.csv,False,60,0.0
10000,448,11,2,0,1.0,898.7999992370605,1726382,5.0,high,main_task,rlwm_trauma_PARTICIPANT_SESSION_2025-11-05_19h45.58.719.csv,False,61,1.0
10000,449,11,3,1,0.0,894.0,1728297,5.0,high,main_task,rlwm_trauma_PARTICIPANT_SESSION_2025-11-05_19h45.58.719.csv,False,62,0.0
10000,450,11,3,2,1.0,969.3999996185304,1730298,5.0,high,main_task,rlwm_trauma_PARTICIPANT_SESSION_2025-11-05_19h45.58.719.csv,False,63,1.0
10000,451,11,5,2,1.0,981.2999992370604,1732315,5.0,high,main_task,rlwm_trauma_PARTICIPANT_SESSION_2025-11-05_19h45.58.719.csv,False,64,1.0
10000,452,11,1,1,1.0,855.5,1734198,5.0,high,main_task,rlwm_trauma_PARTICIPANT_SESSION_2025-11-05_19h45.58.719.csv,False,65,1.0
10000,453,11,5,1,0.0,905.8000011444092,1736127,5.0,high,main_task,rlwm_trauma_PARTICIPANT_SESSION_2025-11-05_19h45.58.719.csv,False,66,0.0
10000,454,11,1,1,1.0,715.2999992370605,1737848,5.0,high,main_task,rlwm_trauma_PARTICIPANT_SESSION_2025-11-05_19h45.58.719.csv,False,67,1.0
10000,455,11,3,2,1.0,808.2000007629395,1739682,5.0,high,main_task,rlwm_trauma_PARTICIPANT_SESSION_2025-11-05_19h45.58.719.csv,False,68,1.0
10000,456,11,4,0,0.0,699.7000007629395,1741398,5.0,high,main_task,rlwm_trauma_PARTICIPANT_SESSION_2025-11-05_19h45.58.719.csv,False,69,0.0
10000,457,11,2,2,0.0,1305.6999988555908,1743730,5.0,high,main_task,rlwm_trauma_PARTICIPANT_SESSION_2025-11-05_19h45.58.719.csv,False,70,0.0
10000,458,11,3,2,1.0,916.2000007629396,1745681,5.0,high,main_task,rlwm_trauma_PARTICIPANT_SESSION_2025-11-05_19h45.58.719.csv,False,71,1.0
10000,459,11,4,0,0.0,780.8999996185303,1747481,5.0,high,main_task,rlwm_trauma_PARTICIPANT_SESSION_2025-11-05_19h45.58.719.csv,False,72,0.0
10000,460,11,5,1,0.0,951.7999992370604,1749448,5.0,high,main_task,rlwm_trauma_PARTICIPANT_SESSION_2025-11-05_19h45.58.719.csv,False,73,0.0
10000,461,11,2,0,1.0,987.7999992370604,1751465,5.0,high,main_task,rlwm_trauma_PARTICIPANT_SESSION_2025-11-05_19h45.58.719.csv,False,74,1.0
10000,462,11,1,1,1.0,886.5,1753382,5.0,high,main_task,rlwm_trauma_PARTICIPANT_SESSION_2025-11-05_19h45.58.719.csv,False,75,1.0
10000,463,12,1,0,1.0,666.0,1769132,3.0,low,main_task,rlwm_trauma_PARTICIPANT_SESSION_2025-11-05_19h45.58.719.csv,False,1,1.0
10000,464,12,2,2,1.0,625.5,1770781,3.0,low,main_task,rlwm_trauma_PARTICIPANT_SESSION_2025-11-05_19h45.58.719.csv,False,2,1.0
10000,465,12,3,1,0.0,655.8000011444092,1772465,3.0,low,main_task,rlwm_trauma_PARTICIPANT_SESSION_2025-11-05_19h45.58.719.csv,False,3,0.0
10000,466,12,1,0,1.0,752.1999988555908,1774249,3.0,low,main_task,rlwm_trauma_PARTICIPANT_SESSION_2025-11-05_19h45.58.719.csv,False,4,1.0
10000,467,12,3,0,0.0,475.70000076293945,1775746,3.0,low,main_task,rlwm_trauma_PARTICIPANT_SESSION_2025-11-05_19h45.58.719.csv,False,5,0.0
10000,468,12,2,2,1.0,968.9000015258788,1777721,3.0,low,main_task,rlwm_trauma_PARTICIPANT_SESSION_2025-11-05_19h45.58.719.csv,False,6,1.0
10000,469,12,2,2,1.0,686.8999996185303,1779415,3.0,low,main_task,rlwm_trauma_PARTICIPANT_SESSION_2025-11-05_19h45.58.719.csv,False,7,1.0
10000,470,12,1,0,1.0,669.6000003814697,1781117,3.0,low,main_task,rlwm_trauma_PARTICIPANT_SESSION_2025-11-05_19h45.58.719.csv,False,8,1.0
10000,471,12,3,2,1.0,411.5,1782548,3.0,low,main_task,rlwm_trauma_PARTICIPANT_SESSION_2025-11-05_19h45.58.719.csv,False,9,1.0
10000,472,12,1,0,1.0,657.3999996185303,1784225,3.0,low,main_task,rlwm_trauma_PARTICIPANT_SESSION_2025-11-05_19h45.58.719.csv,False,10,1.0
10000,473,12,1,0,1.0,655.6000003814697,1785915,3.0,low,main_task,rlwm_trauma_PARTICIPANT_SESSION_2025-11-05_19h45.58.719.csv,False,11,1.0
10000,474,12,2,2,1.0,327.5,1787265,3.0,low,main_task,rlwm_trauma_PARTICIPANT_SESSION_2025-11-05_19h45.58.719.csv,False,12,1.0
10000,475,12,2,2,1.0,483.5999984741211,1788793,3.0,low,main_task,rlwm_trauma_PARTICIPANT_SESSION_2025-11-05_19h45.58.719.csv,False,13,1.0
10000,476,12,3,2,1.0,665.7999992370605,1790482,3.0,low,main_task,rlwm_trauma_PARTICIPANT_SESSION_2025-11-05_19h45.58.719.csv,False,14,1.0
10000,477,12,3,2,1.0,560.0,1792066,3.0,low,main_task,rlwm_trauma_PARTICIPANT_SESSION_2025-11-05_19h45.58.719.csv,False,15,1.0
10000,478,12,1,0,1.0,466.1000003814697,1793564,3.0,low,main_task,rlwm_trauma_PARTICIPANT_SESSION_2025-11-05_19h45.58.719.csv,False,16,1.0
10000,479,12,3,2,1.0,404.5,1794982,3.0,low,main_task,rlwm_trauma_PARTICIPANT_SESSION_2025-11-05_19h45.58.719.csv,False,17,1.0
10000,480,12,2,2,1.0,308.20000076293945,1796315,3.0,low,main_task,rlwm_trauma_PARTICIPANT_SESSION_2025-11-05_19h45.58.719.csv,False,18,1.0
10000,481,12,1,0,1.0,260.79999923706055,1797599,3.0,low,main_task,rlwm_trauma_PARTICIPANT_SESSION_2025-11-05_19h45.58.719.csv,False,19,1.0
10000,482,12,3,2,1.0,228.3000011444092,1798849,3.0,low,main_task,rlwm_trauma_PARTICIPANT_SESSION_2025-11-05_19h45.58.719.csv,False,20,1.0
10000,483,12,2,2,1.0,29.89999961853028,1799915,3.0,low,main_task,rlwm_trauma_PARTICIPANT_SESSION_2025-11-05_19h45.58.719.csv,False,21,1.0
10000,484,12,3,0,0.0,238.0999984741211,1801182,3.0,low,main_task,rlwm_trauma_PARTICIPANT_SESSION_2025-11-05_19h45.58.719.csv,False,22,0.0
10000,485,12,1,0,1.0,553.3000011444092,1802766,3.0,low,main_task,rlwm_trauma_PARTICIPANT_SESSION_2025-11-05_19h45.58.719.csv,False,23,1.0
10000,486,12,2,2,1.0,449.6999988555908,1804248,3.0,low,main_task,rlwm_trauma_PARTICIPANT_SESSION_2025-11-05_19h45.58.719.csv,False,24,1.0
10000,487,12,1,0,1.0,636.7999992370605,1805916,3.0,low,main_task,rlwm_trauma_PARTICIPANT_SESSION_2025-11-05_19h45.58.719.csv,False,25,1.0
10000,488,12,3,2,1.0,577.0,1807514,3.0,low,main_task,rlwm_trauma_PARTICIPANT_SESSION_2025-11-05_19h45.58.719.csv,False,26,1.0
10000,489,12,2,2,1.0,602.1999988555908,1809149,3.0,low,main_task,rlwm_trauma_PARTICIPANT_SESSION_2025-11-05_19h45.58.719.csv,False,27,1.0
10000,490,12,2,0,0.0,364.5,1810549,3.0,low,main_task,rlwm_trauma_PARTICIPANT_SESSION_2025-11-05_19h45.58.719.csv,False,28,0.0
10000,491,12,1,0,1.0,525.7000007629395,1812099,3.0,low,main_task,rlwm_trauma_PARTICIPANT_SESSION_2025-11-05_19h45.58.719.csv,False,29,1.0
10000,492,12,3,2,1.0,814.5,1813931,3.0,low,main_task,rlwm_trauma_PARTICIPANT_SESSION_2025-11-05_19h45.58.719.csv,False,30,1.0
10000,493,12,3,2,1.0,399.0,1815348,3.0,low,main_task,rlwm_trauma_PARTICIPANT_SESSION_2025-11-05_19h45.58.719.csv,False,31,1.0
10000,494,12,1,0,1.0,433.5999984741211,1816799,3.0,low,main_task,rlwm_trauma_PARTICIPANT_SESSION_2025-11-05_19h45.58.719.csv,False,32,1.0
10000,495,12,2,2,1.0,432.5,1818249,3.0,low,main_task,rlwm_trauma_PARTICIPANT_SESSION_2025-11-05_19h45.58.719.csv,False,33,1.0
10000,496,12,1,0,1.0,664.3000011444092,1819933,3.0,low,main_task,rlwm_trauma_PARTICIPANT_SESSION_2025-11-05_19h45.58.719.csv,False,34,1.0
10000,497,12,2,2,1.0,502.79999923706055,1821464,3.0,low,main_task,rlwm_trauma_PARTICIPANT_SESSION_2025-11-05_19h45.58.719.csv,False,35,1.0
10000,498,12,3,2,1.0,478.79999923706055,1822949,3.0,low,main_task,rlwm_trauma_PARTICIPANT_SESSION_2025-11-05_19h45.58.719.csv,False,36,1.0
10000,499,12,3,2,1.0,536.6000003814697,1824515,3.0,low,main_task,rlwm_trauma_PARTICIPANT_SESSION_2025-11-05_19h45.58.719.csv,False,37,1.0
10000,500,12,2,2,1.0,509.20000076293945,1826049,3.0,low,main_task,rlwm_trauma_PARTICIPANT_SESSION_2025-11-05_19h45.58.719.csv,False,38,1.0
10000,501,12,1,0,1.0,443.0,1827516,3.0,low,main_task,rlwm_trauma_PARTICIPANT_SESSION_2025-11-05_19h45.58.719.csv,False,39,1.0
10000,502,12,1,0,1.0,485.5999984741211,1829033,3.0,low,main_task,rlwm_trauma_PARTICIPANT_SESSION_2025-11-05_19h45.58.719.csv,False,40,1.0
10000,503,12,3,2,1.0,524.6999988555908,1830588,3.0,low,main_task,rlwm_trauma_PARTICIPANT_SESSION_2025-11-05_19h45.58.719.csv,False,41,1.0
10000,504,12,2,2,1.0,822.6999988555908,1832432,3.0,low,main_task,rlwm_trauma_PARTICIPANT_SESSION_2025-11-05_19h45.58.719.csv,False,42,1.0
10000,505,12,3,0,0.0,440.20000076293945,1833900,3.0,low,main_task,rlwm_trauma_PARTICIPANT_SESSION_2025-11-05_19h45.58.719.csv,False,43,0.0
10000,506,12,2,2,1.0,828.1000003814697,1835749,3.0,low,main_task,rlwm_trauma_PARTICIPANT_SESSION_2025-11-05_19h45.58.719.csv,False,44,1.0
10000,507,12,1,2,0.0,436.29999923706055,1837227,3.0,low,main_task,rlwm_trauma_PARTICIPANT_SESSION_2025-11-05_19h45.58.719.csv,False,45,0.0
10000,508,13,1,0,0.0,540.3000011444092,1850366,6.0,high,main_task,rlwm_trauma_PARTICIPANT_SESSION_2025-11-05_19h45.58.719.csv,False,1,0.0
10000,509,13,2,0,1.0,517.6999988555908,1851915,6.0,high,main_task,rlwm_trauma_PARTICIPANT_SESSION_2025-11-05_19h45.58.719.csv,False,2,1.0
10000,510,13,3,1,1.0,621.1999988555908,1853547,6.0,high,main_task,rlwm_trauma_PARTICIPANT_SESSION_2025-11-05_19h45.58.719.csv,False,3,1.0
10000,511,13,4,2,0.0,736.0999984741211,1855299,6.0,high,main_task,rlwm_trauma_PARTICIPANT_SESSION_2025-11-05_19h45.58.719.csv,False,4,0.0
10000,512,13,5,0,0.0,777.2999992370605,1857098,6.0,high,main_task,rlwm_trauma_PARTICIPANT_SESSION_2025-11-05_19h45.58.719.csv,False,5,0.0
10000,513,13,6,0,0.0,1521.7000007629397,1859647,6.0,high,main_task,rlwm_trauma_PARTICIPANT_SESSION_2025-11-05_19h45.58.719.csv,False,6,0.0
10000,514,13,5,0,0.0,968.7999992370604,1861632,6.0,high,main_task,rlwm_trauma_PARTICIPANT_SESSION_2025-11-05_19h45.58.719.csv,False,7,0.0
10000,515,13,3,1,1.0,916.5999984741212,1863583,6.0,high,main_task,rlwm_trauma_PARTICIPANT_SESSION_2025-11-05_19h45.58.719.csv,False,8,1.0
10000,516,13,6,1,0.0,1140.7999992370603,1865744,6.0,high,main_task,rlwm_trauma_PARTICIPANT_SESSION_2025-11-05_19h45.58.719.csv,False,9,0.0
10000,517,13,4,0,0.0,842.0999984741211,1867600,6.0,high,main_task,rlwm_trauma_PARTICIPANT_SESSION_2025-11-05_19h45.58.719.csv,False,10,0.0
10000,518,13,1,0,0.0,954.4000015258788,1869583,6.0,high,main_task,rlwm_trauma_PARTICIPANT_SESSION_2025-11-05_19h45.58.719.csv,False,11,0.0
10000,519,13,1,1,0.0,711.3999996185303,1871315,6.0,high,main_task,rlwm_trauma_PARTICIPANT_SESSION_2025-11-05_19h45.58.719.csv,False,12,0.0
10000,520,13,2,0,1.0,776.2000007629395,1873099,6.0,high,main_task,rlwm_trauma_PARTICIPANT_SESSION_2025-11-05_19h45.58.719.csv,False,13,1.0
10000,521,13,4,1,1.0,785.3999996185303,1874906,6.0,high,main_task,rlwm_trauma_PARTICIPANT_SESSION_2025-11-05_19h45.58.719.csv,False,14,1.0
10000,522,13,3,1,1.0,536.0,1876467,6.0,high,main_task,rlwm_trauma_PARTICIPANT_SESSION_2025-11-05_19h45.58.719.csv,False,15,1.0
10000,523,13,5,2,0.0,747.8000011444092,1878233,6.0,high,main_task,rlwm_trauma_PARTICIPANT_SESSION_2025-11-05_19h45.58.719.csv,False,16,0.0
10000,524,13,6,1,0.0,956.3999996185304,1880216,6.0,high,main_task,rlwm_trauma_PARTICIPANT_SESSION_2025-11-05_19h45.58.719.csv,False,17,0.0
10000,525,13,2,0,1.0,772.3999996185303,1882008,6.0,high,main_task,rlwm_trauma_PARTICIPANT_SESSION_2025-11-05_19h45.58.719.csv,False,18,1.0
10000,526,13,2,0,1.0,631.3000011444092,1883664,6.0,high,main_task,rlwm_trauma_PARTICIPANT_SESSION_2025-11-05_19h45.58.719.csv,False,19,1.0
10000,527,13,6,1,0.0,872.1000003814697,1885550,6.0,high,main_task,rlwm_trauma_PARTICIPANT_SESSION_2025-11-05_19h45.58.719.csv,False,20,0.0
10000,528,13,3,1,1.0,692.1999988555908,1887265,6.0,high,main_task,rlwm_trauma_PARTICIPANT_SESSION_2025-11-05_19h45.58.719.csv,False,21,1.0
10000,529,13,1,1,0.0,756.5,1889048,6.0,high,main_task,rlwm_trauma_PARTICIPANT_SESSION_2025-11-05_19h45.58.719.csv,False,22,0.0
10000,530,13,4,1,1.0,1267.6000003814695,1891333,6.0,high,main_task,rlwm_trauma_PARTICIPANT_SESSION_2025-11-05_19h45.58.719.csv,False,23,1.0
10000,531,13,5,2,0.0,960.1000003814696,1893315,6.0,high,main_task,rlwm_trauma_PARTICIPANT_SESSION_2025-11-05_19h45.58.719.csv,False,24,0.0
10000,532,13,4,1,1.0,1173.7999992370603,1895500,6.0,high,main_task,rlwm_trauma_PARTICIPANT_SESSION_2025-11-05_19h45.58.719.csv,False,25,1.0
10000,533,13,3,1,1.0,698.6999988555908,1897217,6.0,high,main_task,rlwm_trauma_PARTICIPANT_SESSION_2025-11-05_19h45.58.719.csv,False,26,1.0
10000,534,13,6,2,1.0,791.8999996185303,1899034,6.0,high,main_task,rlwm_trauma_PARTICIPANT_SESSION_2025-11-05_19h45.58.719.csv,False,27,1.0
10000,535,13,2,0,1.0,712.2999992370605,1900766,6.0,high,main_task,rlwm_trauma_PARTICIPANT_SESSION_2025-11-05_19h45.58.719.csv,False,28,1.0
10000,536,13,4,1,1.0,747.0,1902550,6.0,high,main_task,rlwm_trauma_PARTICIPANT_SESSION_2025-11-05_19h45.58.719.csv,False,29,1.0
10000,537,13,1,1,0.0,1030.1999988555908,1904599,6.0,high,main_task,rlwm_trauma_PARTICIPANT_SESSION_2025-11-05_19h45.58.719.csv,False,30,0.0
10000,538,13,5,2,0.0,738.2000007629395,1906344,6.0,high,main_task,rlwm_trauma_PARTICIPANT_SESSION_2025-11-05_19h45.58.719.csv,False,31,0.0
10000,539,13,3,0,0.0,969.6999988555908,1908338,6.0,high,main_task,rlwm_trauma_PARTICIPANT_SESSION_2025-11-05_19h45.58.719.csv,False,32,0.0
10000,540,13,5,1,1.0,920.8999996185304,1910280,6.0,high,main_task,rlwm_trauma_PARTICIPANT_SESSION_2025-11-05_19h45.58.719.csv,False,33,1.0
10000,541,13,1,1,0.0,856.2999992370605,1912161,6.0,high,main_task,rlwm_trauma_PARTICIPANT_SESSION_2025-11-05_19h45.58.719.csv,False,34,0.0
10000,542,13,6,1,0.0,727.4000015258789,1913900,6.0,high,main_task,rlwm_trauma_PARTICIPANT_SESSION_2025-11-05_19h45.58.719.csv,False,35,0.0
10000,543,13,6,2,1.0,773.2000007629395,1915700,6.0,high,main_task,rlwm_trauma_PARTICIPANT_SESSION_2025-11-05_19h45.58.719.csv,False,36,1.0
10000,544,13,2,0,1.0,663.2999992370605,1917385,6.0,high,main_task,rlwm_trauma_PARTICIPANT_SESSION_2025-11-05_19h45.58.719.csv,False,37,1.0
10000,545,13,3,1,1.0,727.7000007629395,1919132,6.0,high,main_task,rlwm_trauma_PARTICIPANT_SESSION_2025-11-05_19h45.58.719.csv,False,38,1.0
10000,546,13,4,2,0.0,771.1000003814697,1920931,6.0,high,main_task,rlwm_trauma_PARTICIPANT_SESSION_2025-11-05_19h45.58.719.csv,False,39,0.0
10000,547,13,2,0,1.0,540.2999992370605,1922480,6.0,high,main_task,rlwm_trauma_PARTICIPANT_SESSION_2025-11-05_19h45.58.719.csv,False,40,1.0
10000,548,13,1,2,1.0,971.8999996185304,1924467,6.0,high,main_task,rlwm_trauma_PARTICIPANT_SESSION_2025-11-05_19h45.58.719.csv,False,41,1.0
10000,549,13,5,1,1.0,733.7000007629395,1926234,6.0,high,main_task,rlwm_trauma_PARTICIPANT_SESSION_2025-11-05_19h45.58.719.csv,False,42,1.0
10000,550,13,1,1,0.0,894.1000003814697,1928151,6.0,high,main_task,rlwm_trauma_PARTICIPANT_SESSION_2025-11-05_19h45.58.719.csv,False,43,0.0
10000,551,13,4,1,1.0,747.5999984741211,1929917,6.0,high,main_task,rlwm_trauma_PARTICIPANT_SESSION_2025-11-05_19h45.58.719.csv,False,44,1.0
10000,552,13,5,2,0.0,645.3000011444092,1931600,6.0,high,main_task,rlwm_trauma_PARTICIPANT_SESSION_2025-11-05_19h45.58.719.csv,False,45,0.0
10000,553,13,3,1,1.0,669.9000015258789,1933300,6.0,high,main_task,rlwm_trauma_PARTICIPANT_SESSION_2025-11-05_19h45.58.719.csv,False,46,1.0
10000,554,13,6,2,1.0,798.3999996185303,1935128,6.0,high,main_task,rlwm_trauma_PARTICIPANT_SESSION_2025-11-05_19h45.58.719.csv,False,47,1.0
10000,555,13,4,2,0.0,884.2999992370605,1937034,6.0,high,main_task,rlwm_trauma_PARTICIPANT_SESSION_2025-11-05_19h45.58.719.csv,False,48,0.0
10000,556,13,6,1,0.0,850.9000015258789,1938915,6.0,high,main_task,rlwm_trauma_PARTICIPANT_SESSION_2025-11-05_19h45.58.719.csv,False,49,0.0
10000,557,13,2,0,1.0,778.3999996185303,1940701,6.0,high,main_task,rlwm_trauma_PARTICIPANT_SESSION_2025-11-05_19h45.58.719.csv,False,50,1.0
10000,558,13,2,0,1.0,663.7999992370605,1942387,6.0,high,main_task,rlwm_trauma_PARTICIPANT_SESSION_2025-11-05_19h45.58.719.csv,False,51,1.0
10000,559,13,3,1,1.0,669.2999992370605,1944084,6.0,high,main_task,rlwm_trauma_PARTICIPANT_SESSION_2025-11-05_19h45.58.719.csv,False,52,1.0
10000,560,13,5,2,0.0,764.5,1945867,6.0,high,main_task,rlwm_trauma_PARTICIPANT_SESSION_2025-11-05_19h45.58.719.csv,False,53,0.0
10000,561,13,1,1,0.0,773.8999996185303,1947667,6.0,high,main_task,rlwm_trauma_PARTICIPANT_SESSION_2025-11-05_19h45.58.719.csv,False,54,0.0
10000,562,13,2,0,1.0,672.0,1949365,6.0,high,main_task,rlwm_trauma_PARTICIPANT_SESSION_2025-11-05_19h45.58.719.csv,False,55,1.0
10000,563,13,6,1,0.0,814.5,1951209,6.0,high,main_task,rlwm_trauma_PARTICIPANT_SESSION_2025-11-05_19h45.58.719.csv,False,56,0.0
10000,564,13,1,1,0.0,843.0,1953067,6.0,high,main_task,rlwm_trauma_PARTICIPANT_SESSION_2025-11-05_19h45.58.719.csv,False,57,0.0
10000,565,13,4,2,0.0,801.5,1954901,6.0,high,main_task,rlwm_trauma_PARTICIPANT_SESSION_2025-11-05_19h45.58.719.csv,False,58,0.0
10000,566,13,3,1,1.0,660.2000007629395,1956568,6.0,high,main_task,rlwm_trauma_PARTICIPANT_SESSION_2025-11-05_19h45.58.719.csv,False,59,1.0
10000,567,13,3,1,1.0,605.9000015258789,1958201,6.0,high,main_task,rlwm_trauma_PARTICIPANT_SESSION_2025-11-05_19h45.58.719.csv,False,60,1.0
10000,568,13,6,0,0.0,817.2000007629395,1960051,6.0,high,main_task,rlwm_trauma_PARTICIPANT_SESSION_2025-11-05_19h45.58.719.csv,False,61,0.0
10000,569,13,5,2,0.0,863.7999992370605,1961935,6.0,high,main_task,rlwm_trauma_PARTICIPANT_SESSION_2025-11-05_19h45.58.719.csv,False,62,0.0
10000,570,13,5,1,1.0,719.3000011444092,1963683,6.0,high,main_task,rlwm_trauma_PARTICIPANT_SESSION_2025-11-05_19h45.58.719.csv,False,63,1.0
10000,571,13,4,1,1.0,902.7000007629396,1965601,6.0,high,main_task,rlwm_trauma_PARTICIPANT_SESSION_2025-11-05_19h45.58.719.csv,False,64,1.0
10000,572,13,2,0,1.0,632.0,1967267,6.0,high,main_task,rlwm_trauma_PARTICIPANT_SESSION_2025-11-05_19h45.58.719.csv,False,65,1.0
10000,573,13,1,1,0.0,654.2000007629395,1968944,6.0,high,main_task,rlwm_trauma_PARTICIPANT_SESSION_2025-11-05_19h45.58.719.csv,False,66,0.0
10000,574,13,2,0,1.0,655.7999992370605,1970610,6.0,high,main_task,rlwm_trauma_PARTICIPANT_SESSION_2025-11-05_19h45.58.719.csv,False,67,1.0
10000,575,13,5,1,1.0,811.5,1972435,6.0,high,main_task,rlwm_trauma_PARTICIPANT_SESSION_2025-11-05_19h45.58.719.csv,False,68,1.0
10000,576,13,1,2,1.0,823.8999996185303,1974277,6.0,high,main_task,rlwm_trauma_PARTICIPANT_SESSION_2025-11-05_19h45.58.719.csv,False,69,1.0
10000,577,13,4,1,1.0,931.0,1976232,6.0,high,main_task,rlwm_trauma_PARTICIPANT_SESSION_2025-11-05_19h45.58.719.csv,False,70,1.0
10000,578,13,3,1,1.0,670.1000003814697,1977917,6.0,high,main_task,rlwm_trauma_PARTICIPANT_SESSION_2025-11-05_19h45.58.719.csv,False,71,1.0
10000,579,13,6,2,1.0,476.29999923706055,1979401,6.0,high,main_task,rlwm_trauma_PARTICIPANT_SESSION_2025-11-05_19h45.58.719.csv,False,72,1.0
10000,580,13,1,1,0.0,651.3000011444092,1981082,6.0,high,main_task,rlwm_trauma_PARTICIPANT_SESSION_2025-11-05_19h45.58.719.csv,False,73,0.0
10000,581,13,3,1,1.0,710.0,1982818,6.0,high,main_task,rlwm_trauma_PARTICIPANT_SESSION_2025-11-05_19h45.58.719.csv,False,74,1.0
10000,582,13,4,1,1.0,798.8999996185303,1984638,6.0,high,main_task,rlwm_trauma_PARTICIPANT_SESSION_2025-11-05_19h45.58.719.csv,False,75,1.0
10000,583,13,5,2,0.0,716.1000003814697,1986368,6.0,high,main_task,rlwm_trauma_PARTICIPANT_SESSION_2025-11-05_19h45.58.719.csv,False,76,0.0
10000,584,13,2,0,1.0,624.3000011444092,1988017,6.0,high,main_task,rlwm_trauma_PARTICIPANT_SESSION_2025-11-05_19h45.58.719.csv,False,77,1.0
10000,585,13,3,1,1.0,667.0,1989718,6.0,high,main_task,rlwm_trauma_PARTICIPANT_SESSION_2025-11-05_19h45.58.719.csv,False,78,1.0
10000,586,13,6,1,0.0,1040.3999996185305,1991785,6.0,high,main_task,rlwm_trauma_PARTICIPANT_SESSION_2025-11-05_19h45.58.719.csv,False,79,0.0
10000,587,13,4,1,1.0,1129.900001525879,1993946,6.0,high,main_task,rlwm_trauma_PARTICIPANT_SESSION_2025-11-05_19h45.58.719.csv,False,80,1.0
10000,588,13,6,2,1.0,517.3999996185303,1995484,6.0,high,main_task,rlwm_trauma_PARTICIPANT_SESSION_2025-11-05_19h45.58.719.csv,False,81,1.0
10000,589,13,5,2,0.0,1043.2999992370603,1997549,6.0,high,main_task,rlwm_trauma_PARTICIPANT_SESSION_2025-11-05_19h45.58.719.csv,False,82,0.0
10000,590,13,5,0,0.0,586.3000011444092,1999152,6.0,high,main_task,rlwm_trauma_PARTICIPANT_SESSION_2025-11-05_19h45.58.719.csv,False,83,0.0
10000,591,13,1,2,1.0,1213.2999992370603,2001385,6.0,high,main_task,rlwm_trauma_PARTICIPANT_SESSION_2025-11-05_19h45.58.719.csv,False,84,1.0
10000,592,13,2,0,1.0,633.9000015258789,2003042,6.0,high,main_task,rlwm_trauma_PARTICIPANT_SESSION_2025-11-05_19h45.58.719.csv,False,85,1.0
10000,593,13,1,2,1.0,817.8999996185303,2004884,6.0,high,main_task,rlwm_trauma_PARTICIPANT_SESSION_2025-11-05_19h45.58.719.csv,False,86,1.0
10000,594,13,4,1,1.0,751.6000003814697,2006668,6.0,high,main_task,rlwm_trauma_PARTICIPANT_SESSION_2025-11-05_19h45.58.719.csv,False,87,1.0
10000,595,13,2,0,1.0,768.3999996185303,2008467,6.0,high,main_task,rlwm_trauma_PARTICIPANT_SESSION_2025-11-05_19h45.58.719.csv,False,88,1.0
10000,596,13,3,1,1.0,579.3000011444092,2010068,6.0,high,main_task,rlwm_trauma_PARTICIPANT_SESSION_2025-11-05_19h45.58.719.csv,False,89,1.0
10000,597,13,6,2,1.0,751.3000011444092,2011852,6.0,high,main_task,rlwm_trauma_PARTICIPANT_SESSION_2025-11-05_19h45.58.719.csv,False,90,1.0
10000,598,15,1,0,0.0,336.6000003814697,2026435,3.0,low,main_task,rlwm_trauma_PARTICIPANT_SESSION_2025-11-05_19h45.58.719.csv,False,1,0.0
10000,599,15,2,1,0.0,555.0,2028018,3.0,low,main_task,rlwm_trauma_PARTICIPANT_SESSION_2025-11-05_19h45.58.719.csv,False,2,0.0
10000,600,15,3,1,1.0,780.2999992370605,2029817,3.0,low,main_task,rlwm_trauma_PARTICIPANT_SESSION_2025-11-05_19h45.58.719.csv,False,3,1.0
10000,601,15,1,2,1.0,755.3999996185303,2031602,3.0,low,main_task,rlwm_trauma_PARTICIPANT_SESSION_2025-11-05_19h45.58.719.csv,False,4,1.0
10000,602,15,3,1,1.0,726.0,2033352,3.0,low,main_task,rlwm_trauma_PARTICIPANT_SESSION_2025-11-05_19h45.58.719.csv,False,5,1.0
10000,603,15,2,2,1.0,802.8999996185303,2035185,3.0,low,main_task,rlwm_trauma_PARTICIPANT_SESSION_2025-11-05_19h45.58.719.csv,False,6,1.0
10000,604,15,2,2,1.0,756.7999992370605,2036968,3.0,low,main_task,rlwm_trauma_PARTICIPANT_SESSION_2025-11-05_19h45.58.719.csv,False,7,1.0
10000,605,15,3,1,1.0,525.5,2038518,3.0,low,main_task,rlwm_trauma_PARTICIPANT_SESSION_2025-11-05_19h45.58.719.csv,False,8,1.0
10000,606,15,1,2,1.0,673.6000003814697,2040217,3.0,low,main_task,rlwm_trauma_PARTICIPANT_SESSION_2025-11-05_19h45.58.719.csv,False,9,1.0
10000,607,15,1,2,1.0,698.8999996185303,2041934,3.0,low,main_task,rlwm_trauma_PARTICIPANT_SESSION_2025-11-05_19h45.58.719.csv,False,10,1.0
10000,608,15,2,2,1.0,657.7999992370605,2043613,3.0,low,main_task,rlwm_trauma_PARTICIPANT_SESSION_2025-11-05_19h45.58.719.csv,False,11,1.0
10000,609,15,1,2,1.0,670.6999988555908,2045302,3.0,low,main_task,rlwm_trauma_PARTICIPANT_SESSION_2025-11-05_19h45.58.719.csv,False,12,1.0
10000,610,15,3,1,1.0,507.9000015258789,2046836,3.0,low,main_task,rlwm_trauma_PARTICIPANT_SESSION_2025-11-05_19h45.58.719.csv,False,13,1.0
10000,611,15,2,2,1.0,612.1999988555908,2048478,3.0,low,main_task,rlwm_trauma_PARTICIPANT_SESSION_2025-11-05_19h45.58.719.csv,False,14,1.0
10000,612,15,3,1,1.0,835.3999996185303,2050335,3.0,low,main_task,rlwm_trauma_PARTICIPANT_SESSION_2025-11-05_19h45.58.719.csv,False,15,1.0
10000,613,15,1,2,1.0,436.0999984741211,2051789,3.0,low,main_task,rlwm_trauma_PARTICIPANT_SESSION_2025-11-05_19h45.58.719.csv,False,16,1.0
10000,614,15,2,2,1.0,647.0,2053469,3.0,low,main_task,rlwm_trauma_PARTICIPANT_SESSION_2025-11-05_19h45.58.719.csv,False,17,1.0
10000,615,15,2,2,1.0,610.6000003814697,2055100,3.0,low,main_task,rlwm_trauma_PARTICIPANT_SESSION_2025-11-05_19h45.58.719.csv,False,18,1.0
10000,616,15,3,1,1.0,425.70000076293945,2056540,3.0,low,main_task,rlwm_trauma_PARTICIPANT_SESSION_2025-11-05_19h45.58.719.csv,False,19,1.0
10000,617,15,3,1,1.0,561.8999996185303,2058118,3.0,low,main_task,rlwm_trauma_PARTICIPANT_SESSION_2025-11-05_19h45.58.719.csv,False,20,1.0
10000,618,15,1,2,1.0,583.2999992370605,2059734,3.0,low,main_task,rlwm_trauma_PARTICIPANT_SESSION_2025-11-05_19h45.58.719.csv,False,21,1.0
10000,619,15,3,1,1.0,637.2999992370605,2061401,3.0,low,main_task,rlwm_trauma_PARTICIPANT_SESSION_2025-11-05_19h45.58.719.csv,False,22,1.0
10000,620,15,2,2,1.0,582.4000015258789,2063019,3.0,low,main_task,rlwm_trauma_PARTICIPANT_SESSION_2025-11-05_19h45.58.719.csv,False,23,1.0
10000,621,15,1,2,1.0,539.0,2064586,3.0,low,main_task,rlwm_trauma_PARTICIPANT_SESSION_2025-11-05_19h45.58.719.csv,False,24,1.0
10000,622,15,1,2,1.0,575.5,2066208,3.0,low,main_task,rlwm_trauma_PARTICIPANT_SESSION_2025-11-05_19h45.58.719.csv,False,25,1.0
10000,623,15,3,1,1.0,446.1999988555908,2067669,3.0,low,main_task,rlwm_trauma_PARTICIPANT_SESSION_2025-11-05_19h45.58.719.csv,False,26,1.0
10000,624,15,2,2,1.0,478.3999996185303,2069168,3.0,low,main_task,rlwm_trauma_PARTICIPANT_SESSION_2025-11-05_19h45.58.719.csv,False,27,1.0
10000,625,15,3,2,0.0,398.6000003814697,2070583,3.0,low,main_task,rlwm_trauma_PARTICIPANT_SESSION_2025-11-05_19h45.58.719.csv,False,28,0.0
10000,626,15,2,1,0.0,618.2999992370605,2072219,3.0,low,main_task,rlwm_trauma_PARTICIPANT_SESSION_2025-11-05_19h45.58.719.csv,False,29,0.0
10000,627,15,1,2,1.0,763.5,2074019,3.0,low,main_task,rlwm_trauma_PARTICIPANT_SESSION_2025-11-05_19h45.58.719.csv,False,30,1.0
10000,628,15,3,1,1.0,495.8999996185303,2075536,3.0,low,main_task,rlwm_trauma_PARTICIPANT_SESSION_2025-11-05_19h45.58.719.csv,False,31,1.0
10000,629,15,3,1,1.0,660.6000003814697,2077219,3.0,low,main_task,rlwm_trauma_PARTICIPANT_SESSION_2025-11-05_19h45.58.719.csv,False,32,1.0
10000,630,15,2,2,1.0,481.8999996185303,2078736,3.0,low,main_task,rlwm_trauma_PARTICIPANT_SESSION_2025-11-05_19h45.58.719.csv,False,33,1.0
10000,631,15,1,2,1.0,691.2000007629395,2080452,3.0,low,main_task,rlwm_trauma_PARTICIPANT_SESSION_2025-11-05_19h45.58.719.csv,False,34,1.0
10000,632,15,1,2,1.0,524.7000007629395,2082000,3.0,low,main_task,rlwm_trauma_PARTICIPANT_SESSION_2025-11-05_19h45.58.719.csv,False,35,1.0
10000,633,15,2,1,0.0,460.3999996185303,2083468,3.0,low,main_task,rlwm_trauma_PARTICIPANT_SESSION_2025-11-05_19h45.58.719.csv,False,36,0.0
10000,634,15,3,1,1.0,776.7999992370605,2085267,3.0,low,main_task,rlwm_trauma_PARTICIPANT_SESSION_2025-11-05_19h45.58.719.csv,False,37,1.0
10000,635,15,2,2,1.0,443.1000003814697,2086719,3.0,low,main_task,rlwm_trauma_PARTICIPANT_SESSION_2025-11-05_19h45.58.719.csv,False,38,1.0
10000,636,15,3,1,1.0,701.1000003814697,2088452,3.0,low,main_task,rlwm_trauma_PARTICIPANT_SESSION_2025-11-05_19h45.58.719.csv,False,39,1.0
10000,637,15,1,2,1.0,498.6000003814697,2089969,3.0,low,main_task,rlwm_trauma_PARTICIPANT_SESSION_2025-11-05_19h45.58.719.csv,False,40,1.0
10000,638,15,2,2,1.0,812.3999996185303,2091803,3.0,low,main_task,rlwm_trauma_PARTICIPANT_SESSION_2025-11-05_19h45.58.719.csv,False,41,1.0
10000,639,15,1,2,1.0,498.6000003814697,2093319,3.0,low,main_task,rlwm_trauma_PARTICIPANT_SESSION_2025-11-05_19h45.58.719.csv,False,42,1.0
10000,640,15,1,2,1.0,580.9000015258789,2094920,3.0,low,main_task,rlwm_trauma_PARTICIPANT_SESSION_2025-11-05_19h45.58.719.csv,False,43,1.0
10000,641,15,3,1,1.0,538.4000015258789,2096486,3.0,low,main_task,rlwm_trauma_PARTICIPANT_SESSION_2025-11-05_19h45.58.719.csv,False,44,1.0
10000,642,15,2,1,0.0,653.3000011444092,2098153,3.0,low,main_task,rlwm_trauma_PARTICIPANT_SESSION_2025-11-05_19h45.58.719.csv,False,45,0.0
10000,643,16,1,1,1.0,506.5,2112063,6.0,high,main_task,rlwm_trauma_PARTICIPANT_SESSION_2025-11-05_19h45.58.719.csv,False,1,1.0
10000,644,16,2,0,0.0,761.8000011444092,2113837,6.0,high,main_task,rlwm_trauma_PARTICIPANT_SESSION_2025-11-05_19h45.58.719.csv,False,2,0.0
10000,645,16,3,2,0.0,706.8999996185303,2115570,6.0,high,main_task,rlwm_trauma_PARTICIPANT_SESSION_2025-11-05_19h45.58.719.csv,False,3,0.0
10000,646,16,4,2,0.0,1134.0,2117737,6.0,high,main_task,rlwm_trauma_PARTICIPANT_SESSION_2025-11-05_19h45.58.719.csv,False,4,0.0
10000,647,16,5,0,0.0,1188.0,2119953,6.0,high,main_task,rlwm_trauma_PARTICIPANT_SESSION_2025-11-05_19h45.58.719.csv,False,5,0.0
10000,648,16,6,2,0.0,714.8999996185303,2121687,6.0,high,main_task,rlwm_trauma_PARTICIPANT_SESSION_2025-11-05_19h45.58.719.csv,False,6,0.0
10000,649,16,5,1,0.0,819.8000011444092,2123536,6.0,high,main_task,rlwm_trauma_PARTICIPANT_SESSION_2025-11-05_19h45.58.719.csv,False,7,0.0
10000,650,16,2,2,1.0,808.7000007629395,2125370,6.0,high,main_task,rlwm_trauma_PARTICIPANT_SESSION_2025-11-05_19h45.58.719.csv,False,8,1.0
10000,651,16,6,2,0.0,849.5,2127253,6.0,high,main_task,rlwm_trauma_PARTICIPANT_SESSION_2025-11-05_19h45.58.719.csv,False,9,0.0
10000,652,16,3,2,0.0,1072.2000007629397,2129353,6.0,high,main_task,rlwm_trauma_PARTICIPANT_SESSION_2025-11-05_19h45.58.719.csv,False,10,0.0
10000,653,16,1,1,1.0,581.5,2130953,6.0,high,main_task,rlwm_trauma_PARTICIPANT_SESSION_2025-11-05_19h45.58.719.csv,False,11,1.0
10000,654,16,4,0,1.0,775.5999984741211,2132756,6.0,high,main_task,rlwm_trauma_PARTICIPANT_SESSION_2025-11-05_19h45.58.719.csv,False,12,1.0
10000,655,16,6,2,0.0,852.0,2134635,6.0,high,main_task,rlwm_trauma_PARTICIPANT_SESSION_2025-11-05_19h45.58.719.csv,False,13,0.0
10000,656,16,2,1,0.0,913.7999992370604,2136570,6.0,high,main_task,rlwm_trauma_PARTICIPANT_SESSION_2025-11-05_19h45.58.719.csv,False,14,0.0
10000,657,16,3,0,1.0,928.0999984741212,2138520,6.0,high,main_task,rlwm_trauma_PARTICIPANT_SESSION_2025-11-05_19h45.58.719.csv,False,15,1.0
10000,658,16,5,0,0.0,893.1000003814697,2140438,6.0,high,main_task,rlwm_trauma_PARTICIPANT_SESSION_2025-11-05_19h45.58.719.csv,False,16,0.0
10000,659,16,4,1,0.0,748.2000007629395,2142220,6.0,high,main_task,rlwm_trauma_PARTICIPANT_SESSION_2025-11-05_19h45.58.719.csv,False,17,0.0
10000,660,16,1,1,1.0,657.7999992370605,2143902,6.0,high,main_task,rlwm_trauma_PARTICIPANT_SESSION_2025-11-05_19h45.58.719.csv,False,18,1.0
10000,661,16,1,0,0.0,779.4000015258789,2145687,6.0,high,main_task,rlwm_trauma_PARTICIPANT_SESSION_2025-11-05_19h45.58.719.csv,False,19,0.0
10000,662,16,4,1,0.0,784.6000003814697,2147501,6.0,high,main_task,rlwm_trauma_PARTICIPANT_SESSION_2025-11-05_19h45.58.719.csv,False,20,0.0
10000,663,16,6,0,1.0,672.7000007629395,2149187,6.0,high,main_task,rlwm_trauma_PARTICIPANT_SESSION_2025-11-05_19h45.58.719.csv,False,21,1.0
10000,664,16,2,2,1.0,883.7000007629395,2151104,6.0,high,main_task,rlwm_trauma_PARTICIPANT_SESSION_2025-11-05_19h45.58.719.csv,False,22,1.0
10000,665,16,6,0,1.0,1013.0,2153141,6.0,high,main_task,rlwm_trauma_PARTICIPANT_SESSION_2025-11-05_19h45.58.719.csv,False,23,1.0
10000,666,16,3,1,0.0,823.5,2154987,6.0,high,main_task,rlwm_trauma_PARTICIPANT_SESSION_2025-11-05_19h45.58.719.csv,False,24,0.0
10000,667,16,5,2,1.0,897.0,2156903,6.0,high,main_task,rlwm_trauma_PARTICIPANT_SESSION_2025-11-05_19h45.58.719.csv,False,25,1.0
10000,668,16,5,2,1.0,634.1000003814697,2158570,6.0,high,main_task,rlwm_trauma_PARTICIPANT_SESSION_2025-11-05_19h45.58.719.csv,False,26,1.0
10000,669,16,4,0,1.0,729.0,2160320,6.0,high,main_task,rlwm_trauma_PARTICIPANT_SESSION_2025-11-05_19h45.58.719.csv,False,27,1.0
10000,670,16,3,1,0.0,618.1999988555908,2161971,6.0,high,main_task,rlwm_trauma_PARTICIPANT_SESSION_2025-11-05_19h45.58.719.csv,False,28,0.0
10000,671,16,1,0,0.0,989.8000011444092,2163989,6.0,high,main_task,rlwm_trauma_PARTICIPANT_SESSION_2025-11-05_19h45.58.719.csv,False,29,0.0
10000,672,16,2,2,1.0,815.6000003814697,2165837,6.0,high,main_task,rlwm_trauma_PARTICIPANT_SESSION_2025-11-05_19h45.58.719.csv,False,30,1.0
10000,673,16,1,0,0.0,787.1000003814697,2167654,6.0,high,main_task,rlwm_trauma_PARTICIPANT_SESSION_2025-11-05_19h45.58.719.csv,False,31,0.0
10000,674,16,3,1,0.0,672.9000015258789,2169358,6.0,high,main_task,rlwm_trauma_PARTICIPANT_SESSION_2025-11-05_19h45.58.719.csv,False,32,0.0
10000,675,16,4,1,0.0,918.3999996185304,2171302,6.0,high,main_task,rlwm_trauma_PARTICIPANT_SESSION_2025-11-05_19h45.58.719.csv,False,33,0.0
10000,676,16,6,0,1.0,799.8999996185303,2173120,6.0,high,main_task,rlwm_trauma_PARTICIPANT_SESSION_2025-11-05_19h45.58.719.csv,False,34,1.0
10000,677,16,3,1,0.0,895.0,2175037,6.0,high,main_task,rlwm_trauma_PARTICIPANT_SESSION_2025-11-05_19h45.58.719.csv,False,35,0.0
10000,678,16,5,2,1.0,890.2000007629395,2176954,6.0,high,main_task,rlwm_trauma_PARTICIPANT_SESSION_2025-11-05_19h45.58.719.csv,False,36,1.0
10000,679,16,5,2,1.0,683.5,2178670,6.0,high,main_task,rlwm_trauma_PARTICIPANT_SESSION_2025-11-05_19h45.58.719.csv,False,37,1.0
10000,680,16,4,0,1.0,1044.2999992370603,2180736,6.0,high,main_task,rlwm_trauma_PARTICIPANT_SESSION_2025-11-05_19h45.58.719.csv,False,38,1.0
10000,681,16,2,2,1.0,835.8000011444092,2182587,6.0,high,main_task,rlwm_trauma_PARTICIPANT_SESSION_2025-11-05_19h45.58.719.csv,False,39,1.0
10000,682,16,2,2,1.0,755.3999996185303,2184371,6.0,high,main_task,rlwm_trauma_PARTICIPANT_SESSION_2025-11-05_19h45.58.719.csv,False,40,1.0
10000,683,16,6,1,0.0,624.1999988555908,2186020,6.0,high,main_task,rlwm_trauma_PARTICIPANT_SESSION_2025-11-05_19h45.58.719.csv,False,41,0.0
10000,684,16,1,1,1.0,871.2000007629395,2187920,6.0,high,main_task,rlwm_trauma_PARTICIPANT_SESSION_2025-11-05_19h45.58.719.csv,False,42,1.0
10000,685,16,2,2,1.0,802.2999992370605,2189754,6.0,high,main_task,rlwm_trauma_PARTICIPANT_SESSION_2025-11-05_19h45.58.719.csv,False,43,1.0
10000,686,16,4,2,0.0,1158.6999988555908,2191934,6.0,high,main_task,rlwm_trauma_PARTICIPANT_SESSION_2025-11-05_19h45.58.719.csv,False,44,0.0
10000,687,16,6,0,1.0,968.6000003814696,2193921,6.0,high,main_task,rlwm_trauma_PARTICIPANT_SESSION_2025-11-05_19h45.58.719.csv,False,45,1.0
10000,688,16,3,2,0.0,1015.8999996185304,2195954,6.0,high,main_task,rlwm_trauma_PARTICIPANT_SESSION_2025-11-05_19h45.58.719.csv,False,46,0.0
10000,689,16,1,2,0.0,1349.099998474121,2198321,6.0,high,main_task,rlwm_trauma_PARTICIPANT_SESSION_2025-11-05_19h45.58.719.csv,False,47,0.0
10000,690,16,5,2,1.0,919.5,2200270,6.0,high,main_task,rlwm_trauma_PARTICIPANT_SESSION_2025-11-05_19h45.58.719.csv,False,48,1.0
10000,691,16,1,0,0.0,644.1000003814697,2201936,6.0,high,main_task,rlwm_trauma_PARTICIPANT_SESSION_2025-11-05_19h45.58.719.csv,False,49,0.0
10000,692,16,6,0,1.0,988.5,2203957,6.0,high,main_task,rlwm_trauma_PARTICIPANT_SESSION_2025-11-05_19h45.58.719.csv,False,50,1.0
10000,693,16,4,2,0.0,965.2000007629396,2205937,6.0,high,main_task,rlwm_trauma_PARTICIPANT_SESSION_2025-11-05_19h45.58.719.csv,False,51,0.0
10000,694,16,2,2,1.0,691.3000011444092,2207654,6.0,high,main_task,rlwm_trauma_PARTICIPANT_SESSION_2025-11-05_19h45.58.719.csv,False,52,1.0
10000,695,16,2,2,1.0,569.6000003814697,2209254,6.0,high,main_task,rlwm_trauma_PARTICIPANT_SESSION_2025-11-05_19h45.58.719.csv,False,53,1.0
10000,696,16,3,1,0.0,820.1000003814697,2211105,6.0,high,main_task,rlwm_trauma_PARTICIPANT_SESSION_2025-11-05_19h45.58.719.csv,False,54,0.0
10000,697,16,5,2,1.0,803.0,2212921,6.0,high,main_task,rlwm_trauma_PARTICIPANT_SESSION_2025-11-05_19h45.58.719.csv,False,55,1.0
10000,698,16,6,1,0.0,996.1999988555908,2214937,6.0,high,main_task,rlwm_trauma_PARTICIPANT_SESSION_2025-11-05_19h45.58.719.csv,False,56,0.0
10000,699,16,5,2,1.0,768.8999996185303,2216738,6.0,high,main_task,rlwm_trauma_PARTICIPANT_SESSION_2025-11-05_19h45.58.719.csv,False,57,1.0
10000,700,16,3,0,1.0,986.0,2218738,6.0,high,main_task,rlwm_trauma_PARTICIPANT_SESSION_2025-11-05_19h45.58.719.csv,False,58,1.0
10000,701,16,1,1,1.0,863.7000007629395,2220621,6.0,high,main_task,rlwm_trauma_PARTICIPANT_SESSION_2025-11-05_19h45.58.719.csv,False,59,1.0
10000,702,16,5,2,1.0,676.9000015258789,2222321,6.0,high,main_task,rlwm_trauma_PARTICIPANT_SESSION_2025-11-05_19h45.58.719.csv,False,60,1.0
10000,703,16,4,2,0.0,799.6000003814697,2224155,6.0,high,main_task,rlwm_trauma_PARTICIPANT_SESSION_2025-11-05_19h45.58.719.csv,False,61,0.0
10000,704,16,3,0,1.0,843.6000003814697,2226021,6.0,high,main_task,rlwm_trauma_PARTICIPANT_SESSION_2025-11-05_19h45.58.719.csv,False,62,1.0
10000,705,16,4,2,0.0,788.7000007629395,2227820,6.0,high,main_task,rlwm_trauma_PARTICIPANT_SESSION_2025-11-05_19h45.58.719.csv,False,63,0.0
10000,706,16,2,2,1.0,683.7000007629395,2229521,6.0,high,main_task,rlwm_trauma_PARTICIPANT_SESSION_2025-11-05_19h45.58.719.csv,False,64,1.0
10000,707,16,6,0,1.0,666.8999996185303,2231221,6.0,high,main_task,rlwm_trauma_PARTICIPANT_SESSION_2025-11-05_19h45.58.719.csv,False,65,1.0
10000,708,16,5,2,1.0,639.6000003814697,2232888,6.0,high,main_task,rlwm_trauma_PARTICIPANT_SESSION_2025-11-05_19h45.58.719.csv,False,66,1.0
10000,709,16,1,1,1.0,757.6000003814697,2234671,6.0,high,main_task,rlwm_trauma_PARTICIPANT_SESSION_2025-11-05_19h45.58.719.csv,False,67,1.0
10000,710,16,1,1,1.0,635.1000003814697,2236347,6.0,high,main_task,rlwm_trauma_PARTICIPANT_SESSION_2025-11-05_19h45.58.719.csv,False,68,1.0
10000,711,16,2,2,1.0,631.1999988555908,2237999,6.0,high,main_task,rlwm_trauma_PARTICIPANT_SESSION_2025-11-05_19h45.58.719.csv,False,69,1.0
10000,712,16,4,2,0.0,750.2000007629395,2239769,6.0,high,main_task,rlwm_trauma_PARTICIPANT_SESSION_2025-11-05_19h45.58.719.csv,False,70,0.0
10000,713,16,1,1,1.0,778.7999992370605,2241572,6.0,high,main_task,rlwm_trauma_PARTICIPANT_SESSION_2025-11-05_19h45.58.719.csv,False,71,1.0
10000,714,16,3,0,1.0,701.0,2243301,6.0,high,main_task,rlwm_trauma_PARTICIPANT_SESSION_2025-11-05_19h45.58.719.csv,False,72,1.0
10000,715,16,6,0,1.0,660.8000011444092,2244973,6.0,high,main_task,rlwm_trauma_PARTICIPANT_SESSION_2025-11-05_19h45.58.719.csv,False,73,1.0
10000,716,16,3,1,0.0,891.8000011444092,2246889,6.0,high,main_task,rlwm_trauma_PARTICIPANT_SESSION_2025-11-05_19h45.58.719.csv,False,74,0.0
10000,717,16,2,2,1.0,633.8000011444092,2248548,6.0,high,main_task,rlwm_trauma_PARTICIPANT_SESSION_2025-11-05_19h45.58.719.csv,False,75,1.0
10000,718,16,6,0,1.0,606.8999996185303,2250172,6.0,high,main_task,rlwm_trauma_PARTICIPANT_SESSION_2025-11-05_19h45.58.719.csv,False,76,1.0
10000,719,16,5,2,1.0,602.0,2251805,6.0,high,main_task,rlwm_trauma_PARTICIPANT_SESSION_2025-11-05_19h45.58.719.csv,False,77,1.0
10000,720,16,3,1,0.0,616.7999992370605,2253439,6.0,high,main_task,rlwm_trauma_PARTICIPANT_SESSION_2025-11-05_19h45.58.719.csv,False,78,0.0
10000,721,16,4,2,0.0,685.8000011444092,2255171,6.0,high,main_task,rlwm_trauma_PARTICIPANT_SESSION_2025-11-05_19h45.58.719.csv,False,79,0.0
10000,722,16,4,0,1.0,624.8000011444092,2256808,6.0,high,main_task,rlwm_trauma_PARTICIPANT_SESSION_2025-11-05_19h45.58.719.csv,False,80,1.0
10000,723,16,1,1,1.0,661.8999996185303,2258488,6.0,high,main_task,rlwm_trauma_PARTICIPANT_SESSION_2025-11-05_19h45.58.719.csv,False,81,1.0
10000,724,16,5,2,1.0,602.8000011444092,2260124,6.0,high,main_task,rlwm_trauma_PARTICIPANT_SESSION_2025-11-05_19h45.58.719.csv,False,82,1.0
10000,725,16,2,2,1.0,538.6000003814697,2261688,6.0,high,main_task,rlwm_trauma_PARTICIPANT_SESSION_2025-11-05_19h45.58.719.csv,False,83,1.0
10000,726,16,4,2,0.0,663.7000007629395,2263358,6.0,high,main_task,rlwm_trauma_PARTICIPANT_SESSION_2025-11-05_19h45.58.719.csv,False,84,0.0
10000,727,16,6,0,1.0,655.5,2265039,6.0,high,main_task,rlwm_trauma_PARTICIPANT_SESSION_2025-11-05_19h45.58.719.csv,False,85,1.0
10000,728,16,1,1,1.0,578.2000007629395,2266639,6.0,high,main_task,rlwm_trauma_PARTICIPANT_SESSION_2025-11-05_19h45.58.719.csv,False,86,1.0
10000,729,16,6,0,1.0,597.7999992370605,2268266,6.0,high,main_task,rlwm_trauma_PARTICIPANT_SESSION_2025-11-05_19h45.58.719.csv,False,87,1.0
10000,730,16,5,2,1.0,504.20000076293945,2269789,6.0,high,main_task,rlwm_trauma_PARTICIPANT_SESSION_2025-11-05_19h45.58.719.csv,False,88,1.0
10000,731,16,3,1,0.0,484.0,2271305,6.0,high,main_task,rlwm_trauma_PARTICIPANT_SESSION_2025-11-05_19h45.58.719.csv,False,89,0.0
10000,732,16,2,2,1.0,739.4000015258789,2273071,6.0,high,main_task,rlwm_trauma_PARTICIPANT_SESSION_2025-11-05_19h45.58.719.csv,False,90,1.0
10000,733,17,1,0,1.0,333.5,2288143,5.0,high,main_task,rlwm_trauma_PARTICIPANT_SESSION_2025-11-05_19h45.58.719.csv,False,1,1.0
10000,734,17,2,1,1.0,507.6000003814697,2289672,5.0,high,main_task,rlwm_trauma_PARTICIPANT_SESSION_2025-11-05_19h45.58.719.csv,False,2,1.0
10000,735,17,3,2,0.0,605.2999992370605,2291289,5.0,high,main_task,rlwm_trauma_PARTICIPANT_SESSION_2025-11-05_19h45.58.719.csv,False,3,0.0
10000,736,17,4,1,0.0,680.3000011444092,2293002,5.0,high,main_task,rlwm_trauma_PARTICIPANT_SESSION_2025-11-05_19h45.58.719.csv,False,4,0.0
10000,737,17,5,0,0.0,699.8999996185303,2294713,5.0,high,main_task,rlwm_trauma_PARTICIPANT_SESSION_2025-11-05_19h45.58.719.csv,False,5,0.0
10000,738,17,2,1,1.0,763.0,2296506,5.0,high,main_task,rlwm_trauma_PARTICIPANT_SESSION_2025-11-05_19h45.58.719.csv,False,6,1.0
10000,739,17,5,1,0.0,774.8000011444092,2298305,5.0,high,main_task,rlwm_trauma_PARTICIPANT_SESSION_2025-11-05_19h45.58.719.csv,False,7,0.0
10000,740,17,1,0,1.0,852.4000015258789,2300184,5.0,high,main_task,rlwm_trauma_PARTICIPANT_SESSION_2025-11-05_19h45.58.719.csv,False,8,1.0
10000,741,17,4,2,1.0,767.8999996185303,2301972,5.0,high,main_task,rlwm_trauma_PARTICIPANT_SESSION_2025-11-05_19h45.58.719.csv,False,9,1.0
10000,742,17,4,2,1.0,655.1000003814697,2303639,5.0,high,main_task,rlwm_trauma_PARTICIPANT_SESSION_2025-11-05_19h45.58.719.csv,False,10,1.0
10000,743,17,3,1,1.0,816.8000011444092,2305472,5.0,high,main_task,rlwm_trauma_PARTICIPANT_SESSION_2025-11-05_19h45.58.719.csv,False,11,1.0
10000,744,17,2,1,1.0,591.2000007629395,2307089,5.0,high,main_task,rlwm_trauma_PARTICIPANT_SESSION_2025-11-05_19h45.58.719.csv,False,12,1.0
10000,745,17,3,1,1.0,689.6000003814697,2308798,5.0,high,main_task,rlwm_trauma_PARTICIPANT_SESSION_2025-11-05_19h45.58.719.csv,False,13,1.0
10000,746,17,1,0,1.0,819.8000011444092,2310639,5.0,high,main_task,rlwm_trauma_PARTICIPANT_SESSION_2025-11-05_19h45.58.719.csv,False,14,1.0
10000,747,17,2,1,1.0,905.0,2312570,5.0,high,main_task,rlwm_trauma_PARTICIPANT_SESSION_2025-11-05_19h45.58.719.csv,False,15,1.0
10000,748,17,5,2,1.0,826.1000003814697,2314406,5.0,high,main_task,rlwm_trauma_PARTICIPANT_SESSION_2025-11-05_19h45.58.719.csv,False,16,1.0
10000,749,17,5,2,1.0,595.2999992370605,2316022,5.0,high,main_task,rlwm_trauma_PARTICIPANT_SESSION_2025-11-05_19h45.58.719.csv,False,17,1.0
10000,750,17,4,0,0.0,709.1999988555908,2317755,5.0,high,main_task,rlwm_trauma_PARTICIPANT_SESSION_2025-11-05_19h45.58.719.csv,False,18,0.0
10000,751,17,1,1,0.0,615.8999996185303,2319389,5.0,high,main_task,rlwm_trauma_PARTICIPANT_SESSION_2025-11-05_19h45.58.719.csv,False,19,0.0
10000,752,17,3,0,0.0,771.5,2321183,5.0,high,main_task,rlwm_trauma_PARTICIPANT_SESSION_2025-11-05_19h45.58.719.csv,False,20,0.0
10000,753,17,5,2,1.0,754.2000007629395,2322962,5.0,high,main_task,rlwm_trauma_PARTICIPANT_SESSION_2025-11-05_19h45.58.719.csv,False,21,1.0
10000,754,17,1,1,0.0,794.7999992370605,2324772,5.0,high,main_task,rlwm_trauma_PARTICIPANT_SESSION_2025-11-05_19h45.58.719.csv,False,22,0.0
10000,755,17,4,1,0.0,778.3999996185303,2326590,5.0,high,main_task,rlwm_trauma_PARTICIPANT_SESSION_2025-11-05_19h45.58.719.csv,False,23,0.0
10000,756,17,2,1,1.0,660.3999996185303,2328272,5.0,high,main_task,rlwm_trauma_PARTICIPANT_SESSION_2025-11-05_19h45.58.719.csv,False,24,1.0
10000,757,17,1,0,1.0,795.8000011444092,2330089,5.0,high,main_task,rlwm_trauma_PARTICIPANT_SESSION_2025-11-05_19h45.58.719.csv,False,25,1.0
10000,758,17,3,0,0.0,662.3999996185303,2331771,5.0,high,main_task,rlwm_trauma_PARTICIPANT_SESSION_2025-11-05_19h45.58.719.csv,False,26,0.0
10000,759,17,4,2,1.0,623.1000003814697,2333410,5.0,high,main_task,rlwm_trauma_PARTICIPANT_SESSION_2025-11-05_19h45.58.719.csv,False,27,1.0
10000,760,17,3,2,0.0,631.3999996185303,2335056,5.0,high,main_task,rlwm_trauma_PARTICIPANT_SESSION_2025-11-05_19h45.58.719.csv,False,28,0.0
10000,761,17,5,1,0.0,792.0,2336873,5.0,high,main_task,rlwm_trauma_PARTICIPANT_SESSION_2025-11-05_19h45.58.719.csv,False,29,0.0
10000,762,17,5,2,1.0,649.2000007629395,2338556,5.0,high,main_task,rlwm_trauma_PARTICIPANT_SESSION_2025-11-05_19h45.58.719.csv,False,30,1.0
10000,763,17,2,1,1.0,785.1000003814697,2340356,5.0,high,main_task,rlwm_trauma_PARTICIPANT_SESSION_2025-11-05_19h45.58.719.csv,False,31,1.0
10000,764,17,3,2,0.0,710.6000003814697,2342087,5.0,high,main_task,rlwm_trauma_PARTICIPANT_SESSION_2025-11-05_19h45.58.719.csv,False,32,0.0
10000,765,17,2,1,1.0,919.2999992370604,2344023,5.0,high,main_task,rlwm_trauma_PARTICIPANT_SESSION_2025-11-05_19h45.58.719.csv,False,33,1.0
10000,766,17,1,0,1.0,613.9000015258789,2345656,5.0,high,main_task,rlwm_trauma_PARTICIPANT_SESSION_2025-11-05_19h45.58.719.csv,False,34,1.0
10000,767,17,4,2,1.0,789.1999988555908,2347472,5.0,high,main_task,rlwm_trauma_PARTICIPANT_SESSION_2025-11-05_19h45.58.719.csv,False,35,1.0
10000,768,17,4,2,1.0,586.8000011444092,2349073,5.0,high,main_task,rlwm_trauma_PARTICIPANT_SESSION_2025-11-05_19h45.58.719.csv,False,36,1.0
10000,769,17,3,1,1.0,655.6000003814697,2350756,5.0,high,main_task,rlwm_trauma_PARTICIPANT_SESSION_2025-11-05_19h45.58.719.csv,False,37,1.0
10000,770,17,1,0,1.0,783.3000011444092,2352573,5.0,high,main_task,rlwm_trauma_PARTICIPANT_SESSION_2025-11-05_19h45.58.719.csv,False,38,1.0
10000,771,17,5,2,1.0,693.8999996185303,2354290,5.0,high,main_task,rlwm_trauma_PARTICIPANT_SESSION_2025-11-05_19h45.58.719.csv,False,39,1.0
10000,772,17,2,1,1.0,455.8000011444092,2355773,5.0,high,main_task,rlwm_trauma_PARTICIPANT_SESSION_2025-11-05_19h45.58.719.csv,False,40,1.0
10000,773,17,1,2,0.0,643.6000003814697,2357440,5.0,high,main_task,rlwm_trauma_PARTICIPANT_SESSION_2025-11-05_19h45.58.719.csv,False,41,0.0
10000,774,17,4,1,0.0,556.8000011444092,2359021,5.0,high,main_task,rlwm_trauma_PARTICIPANT_SESSION_2025-11-05_19h45.58.719.csv,False,42,0.0
10000,775,17,2,1,1.0,705.0,2360756,5.0,high,main_task,rlwm_trauma_PARTICIPANT_SESSION_2025-11-05_19h45.58.719.csv,False,43,1.0
10000,776,17,5,2,1.0,593.7000007629395,2362375,5.0,high,main_task,rlwm_trauma_PARTICIPANT_SESSION_2025-11-05_19h45.58.719.csv,False,44,1.0
10000,777,17,3,0,0.0,593.7999992370605,2363989,5.0,high,main_task,rlwm_trauma_PARTICIPANT_SESSION_2025-11-05_19h45.58.719.csv,False,45,0.0
10000,778,17,3,1,1.0,632.3999996185303,2365656,5.0,high,main_task,rlwm_trauma_PARTICIPANT_SESSION_2025-11-05_19h45.58.719.csv,False,46,1.0
10000,779,17,1,0,1.0,564.8999996185303,2367239,5.0,high,main_task,rlwm_trauma_PARTICIPANT_SESSION_2025-11-05_19h45.58.719.csv,False,47,1.0
10000,780,17,5,2,1.0,698.8999996185303,2368972,5.0,high,main_task,rlwm_trauma_PARTICIPANT_SESSION_2025-11-05_19h45.58.719.csv,False,48,1.0
10000,781,17,4,1,0.0,477.8000011444092,2370456,5.0,high,main_task,rlwm_trauma_PARTICIPANT_SESSION_2025-11-05_19h45.58.719.csv,False,49,0.0
10000,782,17,5,0,0.0,547.7000007629395,2372023,5.0,high,main_task,rlwm_trauma_PARTICIPANT_SESSION_2025-11-05_19h45.58.719.csv,False,50,0.0
10000,783,17,2,1,1.0,581.1000003814697,2373623,5.0,high,main_task,rlwm_trauma_PARTICIPANT_SESSION_2025-11-05_19h45.58.719.csv,False,51,1.0
10000,784,17,1,2,0.0,612.1000003814697,2375273,5.0,high,main_task,rlwm_trauma_PARTICIPANT_SESSION_2025-11-05_19h45.58.719.csv,False,52,0.0
10000,785,17,2,1,1.0,903.8999996185304,2377206,5.0,high,main_task,rlwm_trauma_PARTICIPANT_SESSION_2025-11-05_19h45.58.719.csv,False,53,1.0
10000,786,17,2,1,1.0,590.9000015258789,2378823,5.0,high,main_task,rlwm_trauma_PARTICIPANT_SESSION_2025-11-05_19h45.58.719.csv,False,54,1.0
10000,787,17,3,0,0.0,611.3999996185303,2380456,5.0,high,main_task,rlwm_trauma_PARTICIPANT_SESSION_2025-11-05_19h45.58.719.csv,False,55,0.0
10000,788,17,4,1,0.0,639.3999996185303,2382123,5.0,high,main_task,rlwm_trauma_PARTICIPANT_SESSION_2025-11-05_19h45.58.719.csv,False,56,0.0
10000,789,17,1,0,1.0,923.0,2384077,5.0,high,main_task,rlwm_trauma_PARTICIPANT_SESSION_2025-11-05_19h45.58.719.csv,False,57,1.0
10000,790,17,3,1,1.0,828.0,2385940,5.0,high,main_task,rlwm_trauma_PARTICIPANT_SESSION_2025-11-05_19h45.58.719.csv,False,58,1.0
10000,791,17,5,1,0.0,872.1000003814697,2387840,5.0,high,main_task,rlwm_trauma_PARTICIPANT_SESSION_2025-11-05_19h45.58.719.csv,False,59,0.0
10000,792,17,2,0,0.0,729.0999984741211,2389590,5.0,high,main_task,rlwm_trauma_PARTICIPANT_SESSION_2025-11-05_19h45.58.719.csv,False,60,0.0
10000,793,17,1,1,0.0,1065.599998474121,2391690,5.0,high,main_task,rlwm_trauma_PARTICIPANT_SESSION_2025-11-05_19h45.58.719.csv,False,61,0.0
10000,794,17,4,2,1.0,942.3000011444092,2393657,5.0,high,main_task,rlwm_trauma_PARTICIPANT_SESSION_2025-11-05_19h45.58.719.csv,False,62,1.0
10000,795,17,4,2,1.0,707.2000007629395,2395393,5.0,high,main_task,rlwm_trauma_PARTICIPANT_SESSION_2025-11-05_19h45.58.719.csv,False,63,1.0
10000,796,17,3,1,1.0,685.6999988555908,2397107,5.0,high,main_task,rlwm_trauma_PARTICIPANT_SESSION_2025-11-05_19h45.58.719.csv,False,64,1.0
10000,797,17,4,2,1.0,851.6999988555908,2398973,5.0,high,main_task,rlwm_trauma_PARTICIPANT_SESSION_2025-11-05_19h45.58.719.csv,False,65,1.0
10000,798,17,5,0,0.0,728.7000007629395,2400721,5.0,high,main_task,rlwm_trauma_PARTICIPANT_SESSION_2025-11-05_19h45.58.719.csv,False,66,0.0
10000,799,17,3,1,1.0,688.6999988555908,2402424,5.0,high,main_task,rlwm_trauma_PARTICIPANT_SESSION_2025-11-05_19h45.58.719.csv,False,67,1.0
10000,800,17,2,2,0.0,818.6999988555908,2404273,5.0,high,main_task,rlwm_trauma_PARTICIPANT_SESSION_2025-11-05_19h45.58.719.csv,False,68,0.0
10000,801,17,5,2,1.0,605.5,2405906,5.0,high,main_task,rlwm_trauma_PARTICIPANT_SESSION_2025-11-05_19h45.58.719.csv,False,69,1.0
10000,802,17,1,1,0.0,744.1000003814697,2407657,5.0,high,main_task,rlwm_trauma_PARTICIPANT_SESSION_2025-11-05_19h45.58.719.csv,False,70,0.0
10000,803,17,5,2,1.0,964.6000003814696,2409657,5.0,high,main_task,rlwm_trauma_PARTICIPANT_SESSION_2025-11-05_19h45.58.719.csv,False,71,1.0
10000,804,17,2,1,1.0,761.3000011444092,2411439,5.0,high,main_task,rlwm_trauma_PARTICIPANT_SESSION_2025-11-05_19h45.58.719.csv,False,72,1.0
10000,805,17,4,2,1.0,892.4000015258789,2413354,5.0,high,main_task,rlwm_trauma_PARTICIPANT_SESSION_2025-11-05_19h45.58.719.csv,False,73,1.0
10000,806,17,3,1,1.0,712.7000007629395,2415074,5.0,high,main_task,rlwm_trauma_PARTICIPANT_SESSION_2025-11-05_19h45.58.719.csv,False,74,1.0
10000,807,17,1,0,1.0,581.4000015258789,2416672,5.0,high,main_task,rlwm_trauma_PARTICIPANT_SESSION_2025-11-05_19h45.58.719.csv,False,75,1.0
10000,808,18,1,1,1.0,326.4000015258789,2435739,2.0,low,main_task,rlwm_trauma_PARTICIPANT_SESSION_2025-11-05_19h45.58.719.csv,False,1,1.0
10000,809,18,2,2,0.0,519.2000007629395,2437287,2.0,low,main_task,rlwm_trauma_PARTICIPANT_SESSION_2025-11-05_19h45.58.719.csv,False,2,0.0
10000,810,18,2,0,1.0,736.7999992370605,2439040,2.0,low,main_task,rlwm_trauma_PARTICIPANT_SESSION_2025-11-05_19h45.58.719.csv,False,3,1.0
10000,811,18,1,1,1.0,376.0,2440442,2.0,low,main_task,rlwm_trauma_PARTICIPANT_SESSION_2025-11-05_19h45.58.719.csv,False,4,1.0
10000,812,18,2,0,1.0,547.6000003814697,2442007,2.0,low,main_task,rlwm_trauma_PARTICIPANT_SESSION_2025-11-05_19h45.58.719.csv,False,5,1.0
10000,813,18,1,1,1.0,501.8999996185303,2443541,2.0,low,main_task,rlwm_trauma_PARTICIPANT_SESSION_2025-11-05_19h45.58.719.csv,False,6,1.0
10000,814,18,1,1,1.0,522.5,2445088,2.0,low,main_task,rlwm_trauma_PARTICIPANT_SESSION_2025-11-05_19h45.58.719.csv,False,7,1.0
10000,815,18,2,0,1.0,439.20000076293945,2446544,2.0,low,main_task,rlwm_trauma_PARTICIPANT_SESSION_2025-11-05_19h45.58.719.csv,False,8,1.0
10000,816,18,2,0,1.0,694.3000011444092,2448257,2.0,low,main_task,rlwm_trauma_PARTICIPANT_SESSION_2025-11-05_19h45.58.719.csv,False,9,1.0
10000,817,18,1,1,1.0,453.1999988555908,2449724,2.0,low,main_task,rlwm_trauma_PARTICIPANT_SESSION_2025-11-05_19h45.58.719.csv,False,10,1.0
10000,818,18,2,0,1.0,676.2999992370605,2451424,2.0,low,main_task,rlwm_trauma_PARTICIPANT_SESSION_2025-11-05_19h45.58.719.csv,False,11,1.0
10000,819,18,2,0,1.0,811.3999996185303,2453258,2.0,low,main_task,rlwm_trauma_PARTICIPANT_SESSION_2025-11-05_19h45.58.719.csv,False,12,1.0
10000,820,18,1,1,1.0,399.5,2454674,2.0,low,main_task,rlwm_trauma_PARTICIPANT_SESSION_2025-11-05_19h45.58.719.csv,False,13,1.0
10000,821,18,1,1,1.0,674.3000011444092,2456372,2.0,low,main_task,rlwm_trauma_PARTICIPANT_SESSION_2025-11-05_19h45.58.719.csv,False,14,1.0
10000,822,18,2,0,1.0,585.0,2457974,2.0,low,main_task,rlwm_trauma_PARTICIPANT_SESSION_2025-11-05_19h45.58.719.csv,False,15,1.0
10000,823,18,1,1,1.0,601.7000007629395,2459608,2.0,low,main_task,rlwm_trauma_PARTICIPANT_SESSION_2025-11-05_19h45.58.719.csv,False,16,1.0
10000,824,18,2,0,1.0,595.0,2461224,2.0,low,main_task,rlwm_trauma_PARTICIPANT_SESSION_2025-11-05_19h45.58.719.csv,False,17,1.0
